time,seconds_elapsed,z,y,x
1778841470319989800,0.07598974609375,-0.05807341878414154,-0.024990064349770545,0.0005619213279889663
1778841470329970700,0.085970703125,-0.012512860092520712,0.020679215413331984,-0.0031233447684790006
1778841470339950600,0.09595068359375,0.002563128486275673,0.09571487491428851,-0.0052796540110430215
1778841470349931800,0.105931884765625,0.044804187366366384,0.1116927807688713,-0.06884256331475917
1778841470359911700,0.11591162109375,0.11844693120419979,0.06853051539063454,-0.12907178559303284
1778841470369892600,0.125892578125,0.16214520315527914,0.039455812075734134,-0.16895249028364195
1778841470379873800,0.135873779296875,0.23346622604727743,0.006003039807081222,-0.15476344060720876
1778841470389853700,0.145853759765625,0.2167792951405048,-0.0070353054642677305,-0.14524368878290989
1778841470399834600,0.155834716796875,0.14575404032468794,0.02481646134853363,-0.12036956982985138
1778841470409814500,0.165814453125,0.05710252792537212,0.06898819603025913,-0.07700380863561294
1778841470419795700,0.175795654296875,0.015351298388838768,0.1011398225724697,-0.027610384649690237
1778841470429776600,0.185776611328125,0.03628887247741222,0.10977437992691993,-0.018731123827659756
1778841470439756500,0.195756591796875,0.06829086141586303,0.038569092369079586,-0.0645028581765946
1778841470449737700,0.20573779296875,0.05827040266096591,-0.024230185893177984,-0.0813409975897055
1778841470459717600,0.215717529296875,0.05214402873516082,-0.026014731222391126,-0.07390348626640625
1778841470469698600,0.225698486328125,-0.010793781214952468,-0.022594693645834923,-0.053516659662080926
1778841470479678700,0.2356787109375,-0.1002770682632923,-0.032660745108127595,0.006882603687164373
1778841470489660000,0.245659912109375,-0.1564262409865856,-0.004859130468964576,0.09174124030927196
1778841470499640600,0.255640625,-0.16342472157180307,0.011691606837511062,0.1857792680525221
1778841470509620700,0.265620849609375,-0.22235621849000453,0.022556699723005294,0.23387361953807995
1778841470519601700,0.2756015625,-0.1944341923415661,-0.003188566908240318,0.22652807908086106
1778841470529581800,0.285581787109375,-0.24061142162680624,0.0006306991189718247,0.21334720179997382
1778841470539562800,0.295562744140625,-0.397962376242876,0.05301788896024227,0.20170509665999561
1778841470549543700,0.305543701171875,-0.583267505711317,0.07784428718090057,0.21160649561248718
1778841470559523600,0.315523681640625,-0.787776517343521,0.06680033059716224,0.23149014020133762
1778841470569504800,0.3255048828125,-0.8779004403829574,0.06351064140200614,0.241551588553749
1778841470579484700,0.335484619140625,-0.9257447260975837,0.007329319974780082,0.2602846748679876
1778841470589465600,0.345465576171875,-0.9056476944863796,0.05140285497903824,0.3908582798587158
1778841470599445500,0.355445556640625,-1.030404539489746,0.15310791021883488,0.5690484262228012
1778841470609426700,0.3654267578125,-1.3050222756147385,0.21045944446921347,0.6614208588413893
1778841470619407600,0.37540771484375,-1.608513639524579,0.2672650352746248,0.8223292136780918
1778841470629387500,0.385387451171875,-1.9888509272277355,0.27087095081210133,1.010836354058236
1778841470639368700,0.39536865234375,-2.261360292896628,0.10912789871692657,1.0608537460282443
1778841470649348600,0.4053486328125,-2.039434282517433,-0.1699123300254345,0.817237808823213
1778841470659329500,0.41532958984375,-1.1344751548171044,-0.485170119574666,0.28257030256465077
1778841470669310500,0.425310546875,0.40102527094483376,-0.8649906899273395,-0.5385960048139095
1778841470679291000,0.435290771484375,1.6990040577888488,-0.9135252959936857,-1.0886668319094925
1778841470689271800,0.445271728515625,1.847346361041069,-0.5270727402806282,-0.8341418165467679
1778841470699251700,0.455251708984375,1.5834598622888325,0.0021972177833318707,-0.29455665456503627
1778841470709232600,0.465232666015625,1.321762982535362,0.3487520628720522,-0.02844561163112521
1778841470719212800,0.475212890625,0.9990414329767227,0.3230705091267824,-0.08311170618981123
1778841470729193700,0.48519384765625,0.8480173432946204,0.23000059576332568,-0.17944442074149847
1778841470739173600,0.495173583984375,0.6638268970698118,0.18670564391613007,-0.2982841506555676
1778841470749154600,0.505154541015625,0.49439679760336874,0.252176771736145,-0.3880971080496907
1778841470759135700,0.5151357421875,0.5180436306506395,0.33286241982281206,-0.40805370827689763
1778841470769115600,0.52511572265625,0.7573936540395021,0.3466115437120199,-0.4408240512393415
1778841470779096600,0.5350966796875,1.0908756670653819,0.2837432918667793,-0.46077159137725826
1778841470789076500,0.545076416015625,1.2212252175092697,0.21882629079818725,-0.5177893636286258
1778841470799057700,0.5550576171875,0.8653484173238277,0.2845277202427387,-0.5285436896160245
1778841470809038600,0.56503857421875,0.6709019500225782,0.406744817635417,-0.49903907045125956
1778841470819018500,0.5750185546875,0.725668143954873,0.4861795888781547,-0.5372255932435394
1778841470828999700,0.584999755859375,0.7804436902374029,0.43996378114819523,-0.5810569900549948
1778841470838979800,0.594979736328125,0.799464617049694,0.3246557324916124,-0.546323676456511
1778841470848960500,0.60496044921875,0.6917062531203031,0.2160129869431257,-0.3808716868408024
1778841470858940700,0.614940673828125,0.6114975748956203,0.07855097414553165,-0.16609540208578108
1778841470868921900,0.624921875,0.5882587381273507,0.015822423031926155,-0.0014466916769742964
1778841470878902800,0.63490283203125,-0.7110761395007371,0.2674152574002743,0.4105946249313652
1778841470888882700,0.644882568359375,-2.7530887480735777,0.6235474936515093,1.174324203994125
1778841470898863900,0.65486376953125,-1.754451804244518,-0.03553133210837841,0.31059739652276036
1778841470908843800,0.66484375,-3.6040590959548946,0.3170879275858402,0.6165766317255794
1778841470918824700,0.67482470703125,-0.9586188216954469,-0.2573001060992479,0.2981405044011772
1778841470928804600,0.6848046875,-1.8540169248461722,-0.017447393885254858,-0.07907748223766684
1778841470938785800,0.694785888671875,-1.7880074523657559,0.06702770961225032,-0.3122536392971873
1778841470948766700,0.7047666015625,-0.7756810058802366,-0.18483166673779486,-0.6311551921762526
1778841470958746600,0.71474658203125,0.0615782120347023,-0.22736907821595667,-0.7350156718842685
1778841470968727600,0.7247275390625,0.9965314959824084,-0.19313713826835155,-0.6266871068514883
1778841470978707700,0.734707763671875,1.2638655048400163,-0.05587386291325092,-0.4308480161480605
1778841470988689200,0.744689208984375,1.2433692447781561,0.055713119393587106,-0.3281384600408375
1778841470998669000,0.7546689453125,1.2395429644882678,0.16416180367469788,-0.17863836505562067
1778841471008650200,0.764650146484375,1.2401251482903957,0.11473580172657966,0.02512567342817783
1778841471018631200,0.774631103515625,1.2697574854880571,-0.012986322823166847,0.16792802434042095
1778841471028611000,0.784611083984375,1.1627625071465968,-0.11492927847206592,0.1347192899607122
1778841471038592000,0.794592041015625,1.1785445981681346,-0.10768705225884914,-0.0810376763947308
1778841471048572400,0.804572509765625,1.2537275571852922,0.01712882945537567,-0.27848113355487586
1778841471058553300,0.81455322265625,1.2428460976868867,0.10183248101174831,-0.40469636067301035
1778841471068533200,0.824533203125,1.11510585295856,0.2052156985968351,-0.32002558847293255
1778841471078514200,0.83451416015625,0.7864788787484168,0.182145788654685,-0.18275617563799024
1778841471088495400,0.844495361328125,0.36265608506202696,-0.03137538147270679,0.006125789403915405
1778841471098475300,0.854475341796875,-0.3873030350625515,-0.035813656181097026,0.5075255976371467
1778841471108456200,0.864456298828125,-0.7891133189052343,0.011440846946835517,0.5162418419256806
1778841471118436000,0.87443603515625,-0.13001345035731793,-0.31478198873102664,-0.14198138991817832
1778841471128417300,0.884417236328125,0.06816402016580105,-0.7208768180251122,-0.9123226422056555
1778841471138397200,0.894397216796875,-0.49889293997883793,-1.2173615278184413,-1.4100022608719764
1778841471148378000,0.904378173828125,-1.5790268482774494,-1.5865741949170826,-1.666558124475181
1778841471158358000,0.91435791015625,-2.4939386301934716,-1.7625211289316414,-1.7029732536807656
1778841471168339200,0.924339111328125,-2.6108488533496854,-2.2006243769049645,-0.8193694870896637
1778841471178320100,0.934320068359375,-2.2570050202965737,-2.38454068236351,0.3145500796712935
1778841471188300000,0.944300048828125,-1.157355679666996,-1.51505618814826,0.2628204769559204
1778841471198281200,0.95428125,-0.05045592951774597,-0.4465823225051164,0.27391163368225097
1778841471208261400,0.964261474609375,0.11772037049531936,-0.1404495041757822,0.4183458235800266
1778841471218242000,0.974241943359375,-0.1865413932651281,-0.7124258005440235,0.10126958643198013
1778841471228222200,0.98422216796875,0.15550795709788798,-1.3753186316341162,0.04324950527027249
1778841471238203400,0.994203369140625,0.05671966608762741,-2.048997645154595,-0.4785983399689197
1778841471248183300,1.004183349609375,-2.6064479880422353,-1.2010299862205982,-1.272112085790187
1778841471258164200,1.014164306640625,-0.10708674827814102,-1.2845581642568111,-2.149984615252912
1778841471268145400,1.0241455078125,0.8809194959431886,-1.7540946613699198,-3.084505645263195
1778841471278125300,1.034125244140625,1.3385370072036982,-1.4020979174882173,-2.5083655072137714
1778841471288106200,1.044106201171875,1.8125813371300696,-1.1998071664273737,-1.6111216300658882
1778841471298086100,1.054086181640625,2.0445932727158067,-1.0085936896979808,-0.9933978741317987
1778841471308067300,1.0640673828125,2.5109388648331166,-0.6632043812572955,-0.5846909626431763
1778841471318047200,1.074047119140625,2.306654309606552,-0.4083364707410335,-0.3922279242441058
1778841471328028200,1.084028076171875,1.6370914992332457,-0.4749444936364889,-0.5108025734812021
1778841471338009000,1.094009033203125,1.1991583471298217,-0.45848611078858376,-0.5484761783152818
1778841471347989200,1.1039892578125,0.5146253466397523,-0.22815350659191608,-0.4135876692675054
1778841471357970200,1.11397021484375,-0.5655038854837418,0.12407470795810221,-0.6898442586407065
1778841471367950000,1.1239501953125,-2.46253460714817,0.38745501075387,-1.2940904011033474
1778841471377931000,1.133930908203125,-3.497840947204828,0.7271294486790895,-1.6284738930135965
1778841471387911400,1.143911376953125,-2.788186949461698,0.47494741624593734,-2.461585928121209
1778841471397892400,1.153892333984375,-3.1204432200849053,1.1205389839231967,-1.857210898581892
1778841471407872300,1.163872314453125,-1.350724873125553,1.675424444758892,-1.0947329270154238
1778841471417853200,1.173853271484375,0.6999526879400014,1.6906921565175055,-0.8343822011739015
1778841471427834400,1.18383447265625,0.9642050973951816,1.7920085047006606,0.6140865684755146
1778841471437814300,1.193814208984375,0.6099456692785025,1.6947130825966596,1.8603503656513989
1778841471447795200,1.203795166015625,0.008943769434094428,1.4585668236851692,2.266046551016718
1778841471457775000,1.213775146484375,-0.025568741020560264,1.5554823065608738,2.0273076452635226
1778841471467756300,1.22375634765625,0.17944646656811236,1.7146218981593846,1.401807702369988
1778841471477736200,1.233736083984375,-0.08631927005946635,1.4607207868486642,0.5254613595612346
1778841471487717000,1.243717041015625,-0.46108138797879217,1.1495821230560541,0.15537483223751186
1778841471497697000,1.253697021484375,-0.5540811587154865,1.049931077736616,0.27395839543342587
1778841471507678200,1.26367822265625,-0.40505905650556084,1.0405752203702927,0.45969124879464507
1778841471517659100,1.2736591796875,-0.28517946214973927,1.094699024745822,0.6854350638963281
1778841471527639000,1.28363916015625,-0.16940321145951748,1.049300963139534,0.8385716156877577
1778841471537620200,1.2936201171875,0.09311901320219039,0.9831874457627534,0.8594166891872882
1778841471547600400,1.303600341796875,0.2627384977608919,0.9505793076246977,1.0495764190800487
1778841471557581300,1.313581298828125,0.4044435549557209,0.84393387337327,1.2582657851368189
1778841471567561200,1.323561279296875,0.5495382545888423,0.6767553522258997,1.0425731161892413
1778841471577542400,1.33354248046875,0.5227788424789905,0.5941419509470462,0.7075410972423851
1778841471587522300,1.343522216796875,0.4497171133995056,0.5657189895391463,0.5126838571831583
1778841471597503200,1.353503173828125,0.3766927937209606,0.6843196500003338,0.5090583601623774
1778841471607483100,1.363483154296875,0.3109130383431911,0.7588935372084379,0.6233775439120829
1778841471617464300,1.37346435546875,0.24073767835497856,0.6953092460483312,0.6872710471518337
1778841471627445200,1.3834453125,0.18170447462797165,0.5804530328124762,0.6129993577606976
1778841471637425200,1.393425048828125,0.20775778429508207,0.5187286903053522,0.647866673002392
1778841471647406000,1.403406005859375,0.4000467813014984,0.4197948533445596,0.47015039122775193
1778841471657386200,1.41338623046875,0.5550859518438578,0.3010322803199291,0.41092634110376236
1778841471667367200,1.4233671875,0.6430874759018421,0.08854746750295162,0.42904710420593617
1778841471677347000,1.43334716796875,0.791551359707117,-0.10162029956579208,0.2847409246020019
1778841471687328000,1.443327880859375,0.8175240053534507,-0.09617197103202342,0.45039808140099047
1778841471697308400,1.453308349609375,0.8181108653306961,-0.07267243750095367,0.5971716740317642
1778841471707289300,1.463289306640625,0.8465630528330802,-0.11179156496822833,0.5819086384482681
1778841471717270000,1.47327001953125,0.7249287237644195,-0.13492927944958208,0.5772881390407681
1778841471727250200,1.483250244140625,0.5424783992052078,-0.10137772298157215,0.5325175616830587
1778841471737231400,1.4932314453125,0.3626321196645498,-0.03593348316848278,0.4237259091831743
1778841471747211300,1.503211181640625,0.12338088047504424,-0.004835165071487427,0.23148221262320876
1778841471757192200,1.513192138671875,-0.09720189860165118,0.040742929276824,0.12325754635632037
1778841471767172000,1.523172119140625,-0.2838344772815704,0.014694880306720733,-0.0172789054505527
1778841471777153300,1.5331533203125,-0.4511339944601059,-0.061759998342394824,-0.145921798107028
1778841471787133200,1.54313330078125,-0.3826011409819126,-0.03842705354988575,-0.13717223607078194
1778841471797114000,1.553114013671875,-0.1345464176118374,0.03233049024045467,-0.1415634567670524
1778841471807094000,1.563093994140625,0.05696282719373703,0.13828618866205214,-0.059944327222555875
1778841471817075200,1.5730751953125,0.2126104850232601,0.26673545844256874,0.23921397591903804
1778841471827055000,1.58305517578125,0.3421463809967041,0.2433189270198345,0.4232634062379598
1778841471837036000,1.5930361328125,0.29488135647475716,0.11261574083268641,0.5232124115906656
1778841471847017200,1.603017333984375,0.38980888040363787,0.10257599285542965,0.5504164987280965
1778841471856997400,1.612997314453125,0.36540158437788484,0.2397761398464441,0.5924659805588424
1778841471866978000,1.62297802734375,0.20001929899752138,0.24127076231837272,0.575303979486227
1778841471876958200,1.632958251953125,-0.0967827964067459,0.07683715596497058,0.5570192579939961
1778841471886939400,1.642939453125,-0.5043821850448846,-0.15585808570981025,0.6147710436083376
1778841471896919300,1.652919189453125,-0.6803104143589734,-0.3451964162170887,0.40852629422470926
1778841471906900200,1.662900146484375,-0.7597311570763587,-0.47319151248931884,0.1818608342334628
1778841471916880100,1.672880126953125,-0.7131938623070716,-0.4856061729043722,0.03572247076630592
1778841471926861300,1.682861328125,-1.1867062773138284,-0.34488895770311356,-0.14774316831529138
1778841471936841200,1.69284130859375,-2.4155542447865006,0.12253215469121932,0.360265098272264
1778841471946822100,1.702822265625,-1.8296821095347404,0.6233294669866561,0.629422815425694
1778841471956803300,1.71280322265625,-1.2513260490015148,0.999443584036827,0.8436445350378752
1778841471966783200,1.722783203125,-1.0058756629109382,1.2832675399243831,0.9268880509138107
1778841471976764200,1.73276416015625,-0.5386059416860342,1.5831757846504448,1.0398775934949516
1778841471986743800,1.742743896484375,-0.1889683281511068,1.9389415256768463,1.4138044296339154
1778841471996724500,1.752724365234375,-0.0644406157284975,2.3580922358989715,1.6558292251899838
1778841472006704600,1.76270458984375,-0.06921323695778846,2.7728245451569555,1.821784634283185
1778841472016685800,1.772685791015625,0.05931845040917396,2.8849896196126936,1.8969190779834986
1778841472026665700,1.782665771484375,-0.1420703833758831,2.6638117972522974,2.0197616137981416
1778841472036646700,1.792646728515625,-1.256307052284479,2.2601666991978884,1.9858581751525402
1778841472046626600,1.80262646484375,-2.942272180280089,2.004948660069704,1.4899971502155065
1778841472056607700,1.812607666015625,-2.28993786034435,2.1395319025605914,1.7316724016815424
1778841472066587600,1.822587646484375,-0.22550036173462867,2.734824192586541,2.1359809320807455
1778841472076568600,1.832568603515625,0.9028716539017856,3.2108979825139046,1.478335938516259
1778841472086549800,1.8425498046875,0.9551286414921283,2.7592104458242654,0.046564767298102376
1778841472096529700,1.85252978515625,0.082858973537758,2.5257886434406043,-0.7653384755641222
1778841472106510600,1.862510498046875,-1.7950977028876542,2.4799995366901157,-1.0723954230010508
1778841472116490500,1.872490478515625,-3.4695430734813213,2.644793208527565,-0.10886194125711918
1778841472126471700,1.8824716796875,-3.3629192665398118,3.097247637936473,0.9946230320125817
1778841472136451800,1.892451904296875,-2.1614251699388025,3.1667256633102894,1.63859430501163
1778841472146432500,1.9024326171875,-1.688350561827421,2.6853794859379527,2.6670091319888827
1778841472156412700,1.91241259765625,-1.3280981769062579,1.8426900596678255,3.0483629032582042
1778841472166393900,1.922393798828125,-0.31642639493718744,1.549226753297448,3.2267630756437775
1778841472176373800,1.932373779296875,0.43075507716760036,1.7534242147624493,3.299779212015867
1778841472186354700,1.942354736328125,0.22616437860131264,1.5106763656288384,2.593965523087978
1778841472196334600,1.95233447265625,-0.43536505518108604,0.7246852703973651,1.5397130750209091
1778841472206315800,1.962315673828125,-0.8083128171548247,0.05167231957018375,0.8344365617096423
1778841472216295700,1.972295654296875,-0.5074892111495137,-0.041347324910759924,0.6194605165988206
1778841472226276600,1.982276611328125,0.41636750924438237,0.24929011038392782,0.6193477038741111
1778841472236257800,1.9922578125,1.5260437383696437,0.6600719284504651,0.9704764327496289
1778841472246237700,2.00223779296875,3.294535466143489,1.555696533833444,1.7183891417384147
1778841472256218600,2.012218505859375,4.201045038156211,2.348295210636407,2.9255647911071776
1778841472266198500,2.022198486328125,3.891995163336396,2.4945062009483574,3.7892286163449285
1778841472276179700,2.0321796875,3.087577307793498,1.9705315728135406,4.126683040133118
1778841472286160000,2.042159912109375,2.611861245262623,1.098578569592908,4.308344260141253
1778841472296140500,2.052140625,2.870613303735852,0.6110461048010737,4.102097464931011
1778841472306120700,2.06212060546875,2.9460277334213254,0.39596638012006874,3.8656852485597133
1778841472316102000,2.072101806640625,3.2498820854246615,0.9297048619002103,3.521680087953806
1778841472326081800,2.082081787109375,3.925765330991149,2.3356733372114595,3.2523657189339397
1778841472336062700,2.092062744140625,3.7730963967114683,3.5144001600787043,3.4109716420471665
1778841472346042600,2.102042724609375,3.1582465887784954,3.953313263130188,3.5937224108576773
1778841472356023800,2.11202392578125,2.2790350657969713,3.4586513848498464,3.5773920383036133
1778841472366003700,2.122003662109375,1.0669441718578339,2.480706223654747,3.250689894676208
1778841472375984600,2.131984619140625,-0.49084465807974337,1.129505549710989,3.042304333871603
1778841472385965600,2.141965576171875,-0.3457967201977968,-0.30852760451138017,2.061419319832325
1778841472395945700,2.15194580078125,1.2703998750448227,-0.1487543911844492,1.0805518414497375
1778841472405926700,2.1619267578125,2.1646213356316086,0.6396656847596168,0.0975935282677412
1778841472415906600,2.171906494140625,2.92658536632657,1.0611705568924545,-0.9988596466690302
1778841472425887500,2.181887451171875,3.2110499582052228,1.3314303900688886,-2.5876538557231425
1778841472435868000,2.191867919921875,2.4567606999218463,1.075940840522945,-4.414958714732528
1778841472445848600,2.2018486328125,0.9854226574689149,-0.18886252968907355,-5.867287520810962
1778841472455828700,2.211828857421875,0.2908621839612722,-1.7454343850523233,-6.689390086126327
1778841472465809700,2.2218095703125,0.9287830708801745,-2.585828393861651,-6.810763718432187
1778841472475789800,2.231789794921875,1.2453425906777382,-2.827380895730853,-6.27941870765984
1778841472485770800,2.241770751953125,1.1192355001091956,-2.0578093126416204,-5.365649081516265
1778841472495750700,2.251750732421875,1.2080951023012398,-0.5058873289108277,-4.0816427059233185
1778841472505731600,2.261731689453125,1.4577823953092097,0.9409627534955739,-3.256175632610917
1778841472515711700,2.271711669921875,1.8717314452350138,1.5047230101823805,-2.939876225054264
1778841472525692700,2.281692626953125,1.9062743508279323,0.8429682432115078,-2.8580495902389287
1778841472535672600,2.291672607421875,1.6114607988923788,-0.492145219284296,-2.9634301191210746
1778841472545653500,2.301653564453125,1.659933445638418,-1.2538070521622895,-2.9648014074742792
1778841472555633700,2.311633544921875,2.3329069412380457,-0.9483616315752267,-3.177791831725836
1778841472565614600,2.321614501953125,4.203672171789408,0.7360323015809058,-3.5765234387755394
1778841472575594800,2.3315947265625,4.4549598857313395,2.5541321098715066,-3.2302006488770245
1778841472585575700,2.34157568359375,3.51212315505743,3.244351339304447,-2.5676889260590077
1778841472595556600,2.351556640625,2.459694999808073,3.6836361982777714,-1.6924720256716013
1778841472605536800,2.361536865234375,1.461780525034666,4.681974159160256,-0.0532213025778532
1778841472615517700,2.371517578125,-0.12500234419703482,4.7052784623801704,0.8384154022127389
1778841472625497600,2.38149755859375,-1.935218121239543,2.893114766140282,-0.7578811452955007
1778841472635478800,2.391478759765625,-2.7873674497723577,1.403928055524826,-3.0921786641091105
1778841472645458700,2.401458740234375,-3.2005934461206196,1.8634882252857088,-3.9075656574338673
1778841472655439600,2.411439697265625,-5.770875895804166,4.0344183056727045,-2.899420296025276
1778841472665419500,2.42141943359375,-1.8684031775951384,4.592878117863834,-1.3125526711195707
1778841472675400700,2.431400634765625,-0.012684125006198883,4.152231322887539,-0.672314154908061
1778841472685380600,2.441380615234375,1.6480507001429796,2.644374690854549,0.39416532204747196
1778841472695361500,2.451361572265625,2.0847943502008914,0.39103579185009,0.36395197009146213
1778841472705341700,2.461341796875,2.2599434118360278,-1.2702820938840507,-0.5344856468856335
1778841472715322600,2.471322509765625,1.8521885403752325,-1.4101914998337626,-1.312667529670894
1778841472725302800,2.481302734375,1.317650871041417,-0.589941430517286,-1.2522709286361933
1778841472735283700,2.49128369140625,1.3613321918576955,-0.2611594118759036,-1.094072125019133
1778841472745263600,2.501263671875,1.70910985673964,0.8734196417070925,-0.20169307742863893
1778841472755244800,2.511244873046875,1.9956506703704595,2.564090609306097,1.3460884454965591
1778841472765224700,2.521224609375,0.1715840626299381,2.44717176445201,1.5202195622608066
1778841472775205600,2.53120556640625,-0.9844126036435366,1.9185645080804823,2.0696333136871456
1778841472785185500,2.541185546875,0.05161678999066353,1.6451109934292734,2.107144713696837
1778841472795166700,2.551166748046875,1.907488987314701,0.555696338827163,1.8755273303866384
1778841472805146600,2.561146728515625,2.0053975728809834,-0.20236293951421974,1.1837152788043022
1778841472815127600,2.57112744140625,0.7662123357892036,0.027258301542699336,0.6153656485006213
1778841472825107500,2.581107421875,-1.1314333029031753,0.6249276959635317,1.0733765429928899
1778841472835088600,2.591088623046875,-2.8163965603798626,1.7742258875116705,2.0987445496201516
1778841472845068800,2.60106884765625,-3.371164532315731,2.4497478985503314,2.957919831266999
1778841472855049700,2.6110498046875,-2.182775416481495,1.1809503441356122,3.1036490294113754
1778841472865029600,2.621029541015625,0.03476443938910961,0.36152591198831796,2.3983418287008997
1778841472875010800,2.6310107421875,1.8299416372537611,-1.3550811686389148,-0.9440124964550137
1778841472884991700,2.64099169921875,1.861180825126171,-2.6851100213468073,-3.074642715157568
1778841472894971600,2.6509716796875,0.12976385951042174,-1.5376716323211788,-3.8837756165236232
1778841472904952800,2.660952880859375,-0.8613502875983714,1.1245002887696027,-7.34409610362947
1778841472914932700,2.6709326171875,0.4021253411412239,2.389201367650926,-6.819773538839817
1778841472924913700,2.68091357421875,-0.14731529829204082,2.4620102910131214,-3.7300858147636053
1778841472934893600,2.6908935546875,-0.783988815498352,1.6508789093062282,-2.5863945033118125
1778841472944874800,2.700874755859375,-2.2489503086566924,0.7255426178790628,-1.4025070828109978
1778841472954854700,2.710854736328125,-3.0660739165157076,0.08789347883993759,-0.1110135663330555
1778841472964835600,2.720835693359375,-3.610933073377609,-0.4425530669890344,-0.3377808792635798
1778841472974815500,2.7308154296875,-3.3489071078002453,-1.7211809644140301,-1.1249804735019802
1778841472984797400,2.74079736328125,-3.019317426037788,-3.0218291165977713,-1.635138319338858
1778841472994777300,2.75077734375,-2.589278826576471,-3.672181615066528,-1.5127446963354945
1778841473004758500,2.760758544921875,-0.24976152728796003,-2.6503780229225753,0.21316110464334487
1778841473014738400,2.770738525390625,2.1768600549578667,-0.18087034362507984,2.7912635804280637
1778841473024719400,2.78071923828125,1.6574316919505596,0.7241282210364938,3.3095378049641844
1778841473034699500,2.790699462890625,0.9121686206877231,-0.34951939398273824,2.5266142806097864
1778841473044680700,2.8006806640625,1.647853716266155,-1.0497715032607315,1.1875531034015119
1778841473054660600,2.81066064453125,3.7034178803294897,-1.6323020729996263,-0.43276174081489444
1778841473064641500,2.8206416015625,4.355416392439603,-1.7078325302802024,-1.1741617069087922
1778841473074621400,2.830621337890625,4.063651122158766,-1.1288782115928828,-0.5959944469459355
1778841473084602600,2.8406025390625,2.624253693845868,-0.6139610423997044,-0.27720775261819364
1778841473094582500,2.85058251953125,0.3231400672316551,-2.970789834234118,-2.827613535442948
1778841473104563500,2.8605634765625,1.748098051303625,0.18254107158258556,-2.3174647496953606
1778841473114543400,2.87054345703125,-0.740261901974678,2.730837168776989,0.08415697745904326
1778841473124524500,2.880524658203125,-1.8390759608238934,2.3681441127054392,0.2873468693166971
1778841473134504400,2.89050439453125,-0.8484159872233867,3.3220264073982833,0.10401523187831044
1778841473144485400,2.9004853515625,-0.8324147004932164,3.903061916273832,1.0390424578450619
1778841473154465500,2.910465576171875,-0.7180185059845448,7.13448713850975,2.6167890570536256
1778841473164446700,2.92044677734375,1.0475988353967667,5.664769975256919,-0.4677082587726414
1778841473174426600,2.930426513671875,2.7206495367616412,4.109471793091297,-0.8579952780820429
1778841473184407600,2.940407470703125,2.3528455674171447,3.9282834512919185,0.1258623220272362
1778841473194387500,2.950387451171875,-0.06422843428254127,3.051638271667063,-0.7976252727933227
1778841473204368600,2.96036865234375,-0.8719149362325668,1.6525881974421441,-0.1375567053437233
1778841473214348500,2.9703486328125,0.6909867066740989,2.0577871008098123,-0.00011515081226825714
1778841473224329500,2.98032958984375,0.6669277856945991,2.3610024242572485,-0.4481920957893133
1778841473234309400,2.990309326171875,0.45052083099782464,2.7607971304938195,0.16734204114601015
1778841473244290600,3.00029052734375,0.6858756472706794,3.1733459582328796,1.9448299991935492
1778841473254270500,3.0102705078125,0.3267126650214195,2.14908839706555,2.0602287948735056
1778841473264251400,3.02025146484375,0.6181167007744311,0.1939483085207641,1.207431816086918
1778841473274231600,3.0302314453125,0.43824061061739916,-0.38449426125213504,0.7294310036197305
1778841473284212500,3.04021240234375,0.33727614461183547,-0.3533858601525426,1.079348018617928
1778841473294192600,3.050192626953125,-0.7208896775066852,-1.4333508416250347,1.1003799929916858
1778841473304173600,3.060173583984375,-1.6440987476468085,-2.670076995126903,0.5111746216639876
1778841473314153500,3.070153564453125,-2.6056349180936813,-2.309881893350929,-0.3831304255530238
1778841473324134700,3.080134765625,-1.9350410111069678,-3.0310081560924647,-2.234577207650244
1778841473334114600,3.090114501953125,-0.1646048712670803,-3.7490640714779495,-2.6660306423455475
1778841473344095500,3.100095458984375,-0.008601824128627776,-2.7391221820414065,-2.0087943757124243
1778841473354075400,3.110075439453125,-0.11136194137930869,-1.138957999319583,-2.2435421660028396
1778841473364056600,3.120056640625,0.8323696923077106,-0.16508184112906454,-2.2581470299385487
1778841473374036500,3.130036376953125,0.9705272861540317,0.20971958588734269,-1.2741833391062916
1778841473384017400,3.140017333984375,0.5073369431972503,-0.09797375975698232,-0.6734596716813742
1778841473393997300,3.149997314453125,0.4584884488761425,-0.21107684571519492,-0.8498762690342963
1778841473403978500,3.159978515625,-0.0940080709964037,-1.1741818729139863,-0.14982815789580345
1778841473413958700,3.169958740234375,0.3930827875077724,-3.522365732130408,0.05671338247731328
1778841473423939600,3.179939697265625,1.2089561030447482,-3.3452211127638813,0.3310492329210043
1778841473433919700,3.189919677734375,-0.07040507709085941,-2.0751788189850746,0.9647503101877868
1778841473443900700,3.199900634765625,-0.5107365225076675,-0.8459763389863073,0.007924217128008603
1778841473453880600,3.209880615234375,-0.3256535113573074,-0.7178096855394542,-1.767852260826528
1778841473463861500,3.219861572265625,0.4781622866392135,-1.3727185321383177,-2.7663661627978087
1778841473473841700,3.229841552734375,0.9537713816642761,-2.0491016900509593,-3.409586909690499
1778841473483822600,3.239822509765625,1.0519424175590275,-1.9419518134087324,-4.236517625814676
1778841473493802500,3.249802490234375,0.5899643730014562,-0.7158820784777402,-4.556536930677295
1778841473503783400,3.259783447265625,-0.11830956856012344,0.8061369344204664,-4.315051648825407
1778841473513763600,3.269763671875,-0.8275836270749568,1.8668331517994403,-3.7078228372901676
1778841473523744500,3.27974462890625,-1.5210662422180175,2.302062597902119,-2.672514159145951
1778841473533724700,3.289724609375,-1.7565905698388813,2.5657828001767395,-1.2970413598634303
1778841473543705300,3.299705322265625,-1.8620809888362884,3.9167408975362776,0.17036131590195
1778841473553685800,3.309685791015625,-2.2701754675149917,5.0194765137434,2.268308212338388
1778841473563666700,3.319666748046875,-2.489665775179863,4.9920028158843515,4.643614910149574
1778841473573646600,3.329646484375,-1.6467670900732279,3.3389658517614005,7.548579980820417
1778841473583627500,3.33962744140625,-0.3246697610169649,1.966339966342598,8.847015279260278
1778841473593607700,3.349607666015625,0.8155413071036338,0.9012031361676752,6.972804292169213
1778841473603588600,3.359588623046875,1.8169196585953236,-0.206300425093621,3.8934401014477014
1778841473613568500,3.369568603515625,2.0522820736527443,-0.9705188105866313,1.5670222299680112
1778841473623549400,3.379549560546875,1.8872616073220967,-1.4560219615079462,0.35999209001716226
1778841473633529600,3.389529541015625,1.3379811268866062,-1.4986428134858607,-0.18603771805930883
1778841473643510500,3.399510498046875,0.6093634854763746,-1.5273995368927715,-0.05933368451092392
1778841473653490400,3.409490478515625,0.11582944218218326,-1.0582201826542614,0.3409962611135095
1778841473663471400,3.419471435546875,-0.4601946682721376,-0.34291327371597286,1.4067413593798874
1778841473673451800,3.42945166015625,-1.1985457681894303,0.024824206263571975,1.6684283022612332
1778841473683432700,3.4394326171875,-1.3401087865650654,-0.1320885030657053,0.8978909428797661
1778841473693412600,3.44941259765625,-1.1000526607334613,-0.6663958707749843,-0.019769046332431026
1778841473703393500,3.4593935546875,-0.24194003988206386,-0.5683262494280934,-1.0296811936512589
1778841473713373700,3.469373779296875,0.4673930553436279,-0.780196291347593,-2.0177733625903724
1778841473723354600,3.479354736328125,0.7901426619529723,-1.4661621011197565,-2.4986238654002544
1778841473733334500,3.48933447265625,1.1968401333153247,-1.5711613755993543,-2.613911748051643
1778841473743315500,3.4993154296875,1.5530764144629239,-1.120883559577167,-2.3949089316427705
1778841473753295600,3.509295654296875,1.3320482297062872,-0.678157327978313,-1.8365088868148625
1778841473763276500,3.519276611328125,0.8601859199941158,0.010358166276663541,-1.2919874374747276
1778841473773256400,3.52925634765625,0.07492869199514389,0.6243439047262073,-0.7233753568425774
1778841473783237400,3.5392373046875,-0.3274573459088802,0.775573015461117,-0.21921105233207344
1778841473793217500,3.549217529296875,-0.6847369986295699,0.7176867898121476,0.19056014565350488
1778841473803198500,3.559198486328125,-0.6523246753245592,0.4902576519720256,0.38766057979594915
1778841473813178600,3.5691787109375,-0.3537520631164312,0.32350027884617444,0.44272579320743677
1778841473823158500,3.579158447265625,-0.198628721421957,0.35537995657920834,0.6021516544014215
1778841473833139700,3.5891396484375,-0.36608839759826656,0.5014139828890561,0.8276188445188105
1778841473843119600,3.59911962890625,-0.5604115307807922,0.686850775913149,1.054045600383356
1778841473853100500,3.6091005859375,-0.6430360379755496,0.7945040720328688,1.04926633021757
1778841473863080400,3.61908056640625,-0.6925929728269576,0.7519128845408558,0.7752941254545003
1778841473873061600,3.6290615234375,-0.5447615417063236,0.5320135576836764,0.3542332707621157
1778841473883041500,3.63904150390625,-0.24356442621350288,0.2908803041398525,0.003279021670669317
1778841473893022500,3.6490224609375,0.13184943361282347,0.0986371921017766,-0.22978165578301996
1778841473903002600,3.659002685546875,0.45084231803715225,-0.06709010732397437,-0.4270128218993544
1778841473912983600,3.668983642578125,0.6138485219359398,-0.212118317592144,-0.5625329068489372
1778841473922963700,3.678963623046875,0.6073579908728599,-0.27922596057280896,-0.6301276026941836
1778841473932944600,3.688944580078125,0.4697498476028442,-0.26005145063400265,-0.6163625505834818
1778841473942924500,3.698924560546875,0.2600251471489668,-0.17944588204622267,-0.5145255029944703
1778841473952905700,3.70890576171875,0.030633623194694516,-0.045365182249993086,-0.40878421450853347
1778841473962885600,3.7188857421875,-0.12184241886138915,0.004034662343561649,-0.3146622348088771
1778841473972866600,3.728866455078125,-0.2029822404563427,0.0242741711653769,-0.21571910029677674
1778841473982846500,3.738846435546875,-0.1828226650029421,0.13509426075294614,-0.13934256584718824
1778841473992826600,3.74882666015625,-0.07767828296422957,0.17321940874680875,-0.09295728330183774
1778841474002806800,3.758806884765625,0.019948563051223753,0.18193273042589425,-0.06733383468566462
1778841474012787500,3.768787353515625,0.12683657388687133,0.23570772136375306,-0.0539659469326958
1778841474022767600,3.778767578125,0.22896657654047012,0.26065964566022154,-0.04495629092184827
1778841474032748800,3.788748779296875,0.29869653084874154,0.2710144509360194,-0.03354930971199646
1778841474042728700,3.798728759765625,0.31702012304663657,0.264212515836209,-0.03270401799427345
1778841474052709600,3.808709716796875,0.26491116562485695,0.23096388783752916,-0.036048542649205775
1778841474062689500,3.818689453125,0.18148235630989074,0.1728004526823759,-0.034061314354743806
1778841474072670700,3.828670654296875,0.002648468682169914,0.056687225122749804,-0.041018513081502166
1778841474082650600,3.838650634765625,-0.15740473062992094,-0.05890709312930703,-0.06714364587580784
1778841474092631600,3.848631591796875,-0.2775929525434971,-0.18495850798785685,-0.0916562106406316
1778841474102611500,3.858611572265625,-0.34868951902985573,-0.2706082082226872,-0.11707600817717612
1778841474112592600,3.868592529296875,-0.3576455634236336,-0.29579730227589607,-0.12944186101444063
1778841474122572500,3.878572509765625,-0.30490415331721304,-0.28212065910100936,-0.16084621285330503
1778841474132552700,3.888552734375,-0.16880349200069902,-0.21320918156877158,-0.174799517545104
1778841474142533600,3.89853369140625,-0.033875381594896316,-0.12724354725256562,-0.17920549741908906
1778841474152513500,3.908513427734375,0.12094342419505119,-0.019683336243778465,-0.16179403336374087
1778841474162494700,3.91849462890625,0.24534604893326759,0.08211728832498193,-0.12485246913125737
1778841474172474600,3.928474609375,0.3053799541354179,0.16305442695468664,-0.08900180540801957
1778841474182455600,3.93845556640625,0.3100409316837787,0.20907938828766345,-0.06860840293243527
1778841474192435500,3.948435546875,0.25366087281405925,0.23394421882256863,-0.0234333546933718
1778841474202416600,3.958416748046875,0.16740297755300998,0.19827859281003474,-0.020282215452380476
1778841474212396500,3.968396484375,0.06958148574829101,0.13866846597790716,-0.004819894437119364
1778841474222377500,3.97837744140625,-0.028869536131620407,0.039454058510065074,-0.01898357221027836
1778841474232357400,3.988357421875,-0.10572539679706096,-0.061296764744818204,-0.04860511401928961
1778841474242338600,3.998338623046875,-0.1382008484661579,-0.14405746553987264,-0.1005419845434837
1778841474252318700,4.008318603515625,-0.1561819108366966,-0.20517565884739158,-0.13304609605148435
1778841474262299600,4.018299560546875,-0.16820084993243217,-0.22687968726381658,-0.16355605633389203
1778841474272279600,4.028279541015625,-0.2009428435832262,-0.21659502461478114,-0.1750942079090513
1778841474282260700,4.0382607421875,-0.22732757716178892,-0.14153963750004767,-0.19140996741587296
1778841474292240600,4.04824072265625,-0.20943536211848257,-0.14481003747284413,-0.18827296629808843
1778841474302221600,4.0582216796875,-0.19494974064826964,-0.09934154097884892,-0.19811678984444586
1778841474312201500,4.068201416015625,-0.18722996005117892,-0.013510638958215714,-0.17114254767382517
1778841474322182700,4.0781826171875,-0.17502806560397147,0.004388444217294454,-0.14087768472628667
1778841474332162600,4.08816259765625,-0.16004793861508368,-0.025170097091794012,-0.08003797956658527
1778841474342142500,4.098142578125,-0.14421908584237098,-0.03460559556558728,-0.020749869496747852
1778841474352123400,4.108123291015625,-0.12034019760489463,-0.06078764617890119,0.009887406959757209
1778841474362103800,4.118103759765625,-0.03312953166365623,-0.06935834451690316,0.03953954483643174
1778841474372084700,4.128084716796875,0.02062894653081894,-0.06325418242290616,0.04826574426339939
1778841474382064600,4.138064697265625,0.10630699607729911,-0.024008652096986768,0.04170779225360602
1778841474392045600,4.148045654296875,0.17901450489163398,0.03791588915735483,0.031385665404703465
1778841474402025700,4.158025634765625,0.23107436247467994,0.10259279785975814,0.04300183238582685
1778841474412006700,4.168006591796875,0.24723113202750682,0.1571140771202743,0.018430705834180116
1778841474421986600,4.177986572265625,0.25765140375494955,0.20115370985493064,-0.0040994894743897016
1778841474431967500,4.187967529296875,0.2729769831806421,0.26611002002060413,-0.038062732015829534
1778841474441947600,4.19794775390625,0.3133329589664936,0.3321856896050274,-0.09314568201340734
1778841474451928600,4.207928466796875,0.3062953154146671,0.31637130374908445,-0.12308341363212093
1778841474461908500,4.217908447265625,0.2806090854942798,0.270254280218482,-0.16401589239798486
1778841474471889400,4.227889404296875,0.10990765091776847,0.31373890941888094,-0.22465894247442483
1778841474481869800,4.237869873046875,-0.09234101456701754,0.3463400332942605,-0.1933923003395088
1778841474491850500,4.2478505859375,-0.15769699157476424,0.18323504519611597,-0.1150186189896427
1778841474501830700,4.25783056640625,-0.1670931809514761,0.07894406511634587,-0.12546645457744598
1778841474511810600,4.267810546875,-0.18302081792354583,0.05967588554471731,-0.17319924274161458
1778841474521791700,4.277791748046875,-0.188895262914896,0.07462854000478983,-0.2113553703956306
1778841474531771600,4.287771728515625,-0.14237433475852013,0.05390840805917978,-0.20860168777331708
1778841474541752600,4.297752685546875,-0.06384089626967906,0.04809153847396373,-0.20186141973286867
1778841474551732500,4.307732421875,0.016378303349018096,0.057364685992896555,-0.16963596076946705
1778841474561713700,4.317713623046875,0.07632803739905357,0.08019728004783391,-0.13440470758620648
1778841474571693600,4.327693603515625,0.1339443600654602,0.09675970779210329,-0.07142979876240715
1778841474581674500,4.337674560546875,0.1773532936811447,0.10701689791232347,-0.019527378497086464
1778841474591654700,4.347654541015625,0.19650339983105658,0.11193827996253966,0.006026219753269106
1778841474601635600,4.357635498046875,0.19126725274324416,0.12789485076814888,0.007326415631640702
1778841474611615700,4.36761572265625,0.1689922925710678,0.13977525817602873,0.02260784538835287
1778841474621596700,4.3775966796875,0.1371463709771633,0.13642507096529005,0.04593297220058739
1778841474631576600,4.38757666015625,0.09139584267139435,0.1263832771614194,0.04992226103246212
1778841474641557800,4.397557861328125,0.03134323276877403,0.11603548614829778,0.0512625514592044
1778841474651537700,4.40753759765625,-0.030245500659942626,0.09828472540229559,0.05176198888132348
1778841474661517600,4.417517578125,-0.0861649562805891,0.07524550285935401,0.044602490781806406
1778841474671498500,4.42749853515625,-0.17052900061905382,0.058684828680753705,0.016734021451510487
1778841474681478400,4.437478515625,-0.20047113441824913,0.001378302615880966,-0.02434827758120373
1778841474691459600,4.44745947265625,-0.21766192319393157,-0.03534165475517511,-0.0726631582159549
1778841474701439700,4.457439697265625,-0.2086193695604801,-0.04733458262681961,-0.12270659794267266
1778841474711420400,4.46742041015625,-0.136423317399621,-0.0015279402196407318,-0.15578308424483983
1778841474721400600,4.477400634765625,-0.05734510450959205,0.06771452283263206,-0.20227792811188847
1778841474731381800,4.4873818359375,0.04417290372550487,0.11435001727938651,-0.23218762094620615
1778841474741361700,4.497361572265625,0.10672083757519721,0.15593436581641434,-0.27005336908521127
1778841474751342600,4.507342529296875,0.12472995699644088,0.13684884933531283,-0.2722719036512077
1778841474761322500,4.517322509765625,0.12704583272337913,0.09074702337384223,-0.2555012217174284
1778841474771303700,4.5273037109375,0.07951485074162483,0.037466976346075535,-0.24793233909942208
1778841474781283600,4.53728369140625,-0.007470189750194549,-0.0405336704403162,-0.23137835038993507
1778841474791263500,4.547263427734375,-0.025551205363869664,-0.10767711538672446,-0.22030195284131912
1778841474801244400,4.557244384765625,-0.017993921852111815,-0.15408201594799756,-0.20101987260850146
1778841474811224600,4.567224609375,-0.06924129400849342,-0.1743017971560359,-0.18957524453569202
1778841474821205500,4.57720556640625,-0.09811141466200352,-0.1747331743106246,-0.18520718551930038
1778841474831185700,4.587185546875,-0.06105448042154312,-0.1445049170464277,-0.15928024217821657
1778841474841166600,4.59716650390625,-0.009685527712106705,-0.10485270561575889,-0.12570351473633198
1778841474851146800,4.607146728515625,0.020097616133093833,-0.05902560494244098,-0.08669696253174915
1778841474861127700,4.617127685546875,0.05842939261496067,-0.033466216272115705,-0.040746527739707376
1778841474871107600,4.627107666015625,0.08925298542380332,-0.024342998617887496,-0.030938414827547965
1778841474881088500,4.637088623046875,0.11050152515769004,-0.037619244298338884,-0.004505165932141244
1778841474891068700,4.647068603515625,0.15345102456808088,-0.08805237746238707,0.030861933791544286
1778841474901048600,4.657048583984375,0.16514555401504039,-0.11685352453291416,0.025816706165950744
1778841474911029500,4.667029541015625,0.15033786098361016,-0.10349193865656853,0.03519548775013536
1778841474921009700,4.677009765625,0.1113484973758459,-0.0928793592274189,0.0645131147091277
1778841474930990600,4.686990478515625,0.05346037203073501,-0.06228226865082979,0.08153229151125997
1778841474940970800,4.696970703125,-0.01818447598814964,-0.016166121903061867,0.10270265144240111
1778841474950951700,4.70695166015625,-0.061655368924140926,0.02434445992261171,0.1366041538592428
1778841474960931600,4.716931640625,-0.10058218868970871,0.08415069384872913,0.13751341419126836
1778841474970912800,4.726912841796875,-0.10220949763059616,0.1295388185828924,0.14358623129893094
1778841474980892700,4.736892578125,-0.12539865003824233,0.15823533623516559,0.11276852024160325
1778841474990874000,4.7468740234375,-0.12918810544908046,0.17775135308802126,0.08373948269933462
1778841475000854000,4.75685400390625,-0.1321615683019161,0.15104454794824124,0.029813356320373713
1778841475010835000,4.7668349609375,-0.1256312897503376,0.1133311956256628,-0.018774678699951617
1778841475020814800,4.77681494140625,-0.09369009108841418,0.044001638811826706,-0.0726624640962109
1778841475030794800,4.786794677734375,-0.03655716802477836,0.037820319828391076,-0.12689656044580042
1778841475040776000,4.79677587890625,0.05945405948758125,0.039494682781398296,-0.1839110447615385
1778841475050756000,4.806756103515625,0.1363186879813671,0.040733284665644166,-0.22581841470785438
1778841475060736800,4.81673681640625,0.22634499586522577,0.049427463252842425,-0.2816921314906329
1778841475070717000,4.826717041015625,0.26362054129242896,0.06274842485785484,-0.33104897719267756
1778841475080698000,4.836697998046875,0.3038976066231727,0.09449351642578839,-0.3475484227033332
1778841475090678000,4.846677978515625,0.2993804214596748,0.12268676073104143,-0.3242769257744774
1778841475100659000,4.856658935546875,0.2728735228061676,0.16402327198684213,-0.30537536929184567
1778841475110638800,4.866638916015625,0.23557751911282537,0.1785758212134242,-0.29262475492069495
1778841475120619000,4.876618896484375,0.1834837592601776,0.19355039524435996,-0.2685233465063386
1778841475130600000,4.886599853515625,0.11633213100731372,0.2253904716193676,-0.2466096573946066
1778841475140579800,4.896579833984375,0.05092822320461273,0.22568448612987993,-0.20154946770686655
1778841475150560800,4.906560791015625,-0.015348375779390334,0.22024200281500816,-0.1497458316409029
1778841475160541200,4.916541259765625,-0.09161211577057837,0.18099691088050604,-0.09579179434170947
1778841475170521900,4.92652197265625,-0.15549334405064583,0.08416121524274349,-0.054389049449283626
1778841475180502000,4.936501953125,-0.18493980328738688,0.04345803345441818,-0.03404951431909576
1778841475190483000,4.94648291015625,-0.16646014374494553,0.021668226450681685,-0.012238061739131808
1778841475200463000,4.956463134765625,-0.10860124449431896,-0.028545418743789193,-0.016921872173808514
1778841475210444000,4.966444091796875,-0.060765726608037945,-0.05531359868198633,-0.014046992590930313
1778841475220424000,4.976423828125,0.021468319964408872,-0.06418254931420088,0.013503003641031682
1778841475230403800,4.98640380859375,0.0708019674539566,-0.04617722928524017,0.015628252166695892
1778841475240385000,4.996385009765625,0.09999182158112525,-0.052826750302314755,0.017557813723478467
1778841475250365000,5.006364990234375,0.10846154376268387,-0.031554829692840576,0.0271058326610364
1778841475260345900,5.016345947265625,0.07144727962017058,-0.007943067958950997,0.01659072225699201
1778841475270326000,5.026325927734375,0.04870002576112747,0.01903495533764362,0.02460259940214455
1778841475280307000,5.036306884765625,0.02644201672375202,0.03288812412321567,0.015878117008227853
1778841475290287000,5.046287109375,0.017513444858789442,0.048071080207824704,-0.0002786890772171318
1778841475300268000,5.05626806640625,-0.009940963777899742,0.037437750251591205,-0.01616511725606397
1778841475310248000,5.066248046875,0.017186112600564955,0.021972177833318708,-0.04477077828710899
1778841475320227800,5.076227783203125,0.05236030183434486,-0.007501461671292781,-0.07506735154716297
1778841475330209000,5.086208984375,0.09636077160239219,-0.07440992881804705,-0.10445059108827262
1778841475340189000,5.09618896484375,0.16079729567766188,-0.13286211778670548,-0.13527257646191865
1778841475350169900,5.106169921875,0.243724585211277,-0.15906564957946537,-0.14785910457884893
1778841475360149800,5.116149658203125,0.3148720051020384,-0.16877718851566315,-0.15876648396980017
1778841475370131000,5.126130859375,0.34230303286314007,-0.1375499833419919,-0.15929859981881453
1778841475380111000,5.136111083984375,0.3342962520182133,-0.07244418170303106,-0.14654975727964192
1778841475390091800,5.146091796875,0.27061960639953614,0.04082271651476621,-0.10093058200227097
1778841475400072000,5.156072021484375,0.145071318757534,0.13574907139986753,-0.09722593706436454
1778841475410053000,5.16605322265625,-0.0334837519288063,0.22502280735075472,-0.07393376267366111
1778841475420033000,5.176032958984375,-0.21900749258399008,0.27702567404955625,-0.08332821675101294
1778841475430013000,5.186012939453125,-0.39847558646202086,0.3147530548974872,-0.10570882925475016
1778841475439993900,5.195993896484375,-0.557420532271266,0.3447825747191906,-0.13350828846944496
1778841475449974000,5.20597412109375,-0.6776455790638923,0.32951924687474965,-0.18713289288487284
1778841475459955000,5.215954833984375,-0.6945335855007171,0.3285594619318843,-0.21866152869053185
1778841475469934800,5.225934814453125,-0.6228887374818325,0.3068798373043537,-0.19287481580404564
1778841475479915800,5.235915771484375,-0.4603904831051826,0.28193828827142714,-0.19103362665046006
1778841475489896000,5.24589599609375,-0.22119185088574886,0.23876637828201053,-0.19236259196558966
1778841475499876900,5.255876953125,0.04480009571313858,0.2029755184546113,-0.20631783288614824
1778841475509857000,5.26585693359375,0.3084872725009918,0.1497097922131419,-0.2268470088369213
1778841475519837000,5.2758369140625,0.4939537300109863,0.09074468528628349,-0.23557474263384937
1778841475529818000,5.285818115234375,0.6426572677910327,0.04592208548039198,-0.24971471073785795
1778841475539798000,5.295798095703125,0.7018582293003797,-0.006105038876831531,-0.2425135654537007
1778841475549779000,5.305779052734375,0.6842062527537346,-0.06019201837331056,-0.1973523265442811
1778841475559758800,5.3157587890625,0.5453273588955402,-0.09562135141193866,-0.12923342416184022
1778841475569740000,5.325739990234375,0.34582886890172954,-0.10800298634022473,-0.07255761548224836
1778841475579720000,5.335719970703125,0.12670505646169186,-0.10081979683786631,-0.005872271300572902
1778841475589700000,5.3457001953125,-0.08874445137977599,-0.09698357967585325,0.03163123766360804
1778841475599681000,5.355680908203125,-0.27229952231049537,-0.08059037101864815,0.03309062442537397
1778841475609661000,5.365660888671875,-0.3736789988577366,-0.05027122060060501,0.042268695805687456
1778841475619642000,5.37564208984375,-0.41434710933268065,-0.009717676416039467,0.05288423437690362
1778841475629622000,5.3856220703125,-0.40019992603659627,0.054499944211542604,0.07582788759088144
1778841475639603000,5.39560302734375,-0.3413748121023178,0.099397362819314,0.10616040894715115
1778841475649582800,5.405582763671875,-0.24040099374651908,0.10277326899319887,0.07542118821982294
1778841475659564000,5.41556396484375,-0.1387234110355377,0.12368746220618486,0.03840127978781238
1778841475669544000,5.4255439453125,-0.019592004698514937,0.11984130817204713,0.015625439155101777
1778841475679523800,5.43552392578125,0.08400047172307967,0.09445347667634486,-0.021575835459493098
1778841475689504800,5.4455048828125,0.16516542775928972,0.07009148109704255,-0.058663164838217194
1778841475699485200,5.455485107421875,0.22950667476654052,0.03793371707499027,-0.07842953972294926
1778841475709465900,5.4654658203125,0.2608896550238132,0.02716477804034948,-0.08900419829450547
1778841475719446000,5.475446044921875,0.24439210920929907,-0.00021656536012887954,-0.09723134389184415
1778841475729427000,5.485427001953125,0.20955518910586832,-0.004236030134558678,-0.08370669467458501
1778841475739407000,5.495406982421875,0.13742811052799225,-0.007516074718534946,-0.06557425940092652
1778841475749387000,5.505386962890625,0.07869535105228423,-0.01248947921693325,-0.060882649252284315
1778841475759368000,5.515367919921875,-0.001821370208263397,-0.028844401690363883,-0.06295702610723673
1778841475769347800,5.525347900390625,-0.07137596794962883,-0.03564092996269464,-0.071395786894951
1778841475779329000,5.5353291015625,-0.1266769994109869,-0.03758914142102003,-0.07421299974014982
1778841475789309000,5.545308837890625,-0.14984101737737654,-0.0270136791318655,-0.10308995199324562
1778841475799289900,5.555289794921875,-0.176451960927248,-0.021528525719046593,-0.10283626949312165
1778841475809270000,5.56527001953125,-0.14607552736401558,-0.02449059039503336,-0.11565196672342717
1778841475819251000,5.5752509765625,-0.09949673154056071,-0.00274929870814085,-0.12373248865799978
1778841475829231000,5.585231201171875,-0.04746902266144752,0.006382394513487815,-0.14218073014887048
1778841475839211000,5.5952109375,0.00006312836408615112,0.013960720813274383,-0.11811346146613359
1778841475849192000,5.60519189453125,0.05443886167407035,0.03906681275814772,-0.1026131282617338
1778841475859171800,5.615171875,0.11186287663877009,0.052230245713889595,-0.1017027902174741
1778841475869153000,5.625153076171875,0.13966215319037437,0.06575578998029231,-0.10700542667023837
1778841475879133000,5.6351328125,0.16540800434350966,0.09816431389302015,-0.09095427291635423
1778841475889113900,5.64511376953125,0.17581366302371024,0.09884119024127722,-0.09242821792643517
1778841475899093800,5.65509375,0.16461188552975653,0.0964478653639555,-0.1008353232005611
1778841475909074200,5.66507421875,0.15005962856411934,0.09712269588559866,-0.11158563059996812
1778841475919055000,5.67505517578125,0.13840484660565852,0.09088438601791858,-0.1114241564279422
1778841475929035000,5.685034912109375,0.0978898808658123,0.07790653876215219,-0.14204051796058192
1778841475939016000,5.695015869140625,0.04338789082765579,0.07103869881927967,-0.15048875896269454
1778841475948996000,5.70499609375,0.01368365743756294,0.06882160729169845,-0.16655662638936192
1778841475958977000,5.71497705078125,-0.03796937291026115,0.06642097589075564,-0.17272634626654906
1778841475968957000,5.72495703125,-0.049116789868474,0.06381897669881582,-0.1584080076546408
1778841475978936800,5.734936767578125,-0.058413610523939126,0.07089052252024412,-0.13025407244646922
1778841475988918800,5.744918701171875,-0.07274667178094386,0.06307721842080355,-0.09298218028107658
1778841475998898700,5.754898681640625,-0.05661152953803539,0.07073299387097358,-0.06609048356106505
1778841476008879900,5.7648798828125,-0.04254851739406586,0.0823243552044034,-0.05314754322189837
1778841476018859800,5.77485986328125,0.011546645408868789,0.07677256629616022,-0.04103248680792749
1778841476028840700,5.7848408203125,0.033895255339145655,0.056022915995121,-0.06284099851213396
1778841476038820900,5.79482080078125,0.06768529673814773,0.057791094711422915,-0.056650674238335336
1778841476048800800,5.80480078125,0.0846878694653511,0.04647533544898033,-0.0900882124052383
1778841476058782000,5.814781982421875,0.08490355804264545,0.030643267805874345,-0.07483620967241003
1778841476068761900,5.824761962890625,0.08750409592986107,0.02769815426468849,-0.0860475039133802
1778841476078742800,5.83474267578125,0.08569675424695014,0.02098141323029995,-0.10203392186798155
1778841476088722700,5.84472265625,0.06710019032657145,0.01945113492310047,-0.1144086886640638
1778841476098704000,5.854703857421875,0.05030336930453777,0.028264848236739634,-0.11385291794482617
1778841476108683800,5.864683837890625,0.007410568517446517,0.026856735004484652,-0.11601900993753224
1778841476118663700,5.87466357421875,-0.018813421541452408,0.036356384755671024,-0.11716741278767585
1778841476128644600,5.88464453125,-0.051630818516016,0.04830898061692714,-0.10163938785875215
1778841476138625000,5.894625,-0.07344517543911934,0.04590718017220497,-0.10057935741180553
1778841476148605700,5.904605712890625,-0.09010171120762825,0.05844575922787189,-0.07742920357398689
1778841476158585900,5.9145859375,-0.09039514119625092,0.05459112962633371,-0.08038189763342961
1778841476168566800,5.92456689453125,-0.10399521200358867,0.06398994935154914,-0.0745189421504736
1778841476178547000,5.934546875,-0.07252513798475264,0.06111673200279474,-0.05535667063873261
1778841476188526800,5.94452685546875,-0.0417056368291378,0.057415539397299285,-0.058512339924369
1778841476198507800,5.9545078125,0.009039046502113342,0.04461304870843887,-0.05079988411720842
1778841476208487700,5.96448779296875,0.03925882819890976,0.05926701248288154,-0.06443319960702211
1778841476218468900,5.97446875,0.08751227923631667,0.055768648973107335,-0.07253633523220196
1778841476228448800,5.98444873046875,0.11155483360290527,0.05569762956351042,-0.08677481354093179
1778841476238429700,5.9944296875,0.1449637667298317,0.05222177014648914,-0.09516451102253048
1778841476248409900,6.004409912109375,0.15964929468631744,0.05565174459517002,-0.10436722365375607
1778841476258389800,6.0143896484375,0.1341793378651142,0.07067717203050851,-0.09468646344831212
1778841476268371000,6.024370849609375,0.11327332795858383,0.06491729332953691,-0.08995950799165293
1778841476278350800,6.034350830078125,0.0780301651418209,0.06202157188802957,-0.08916125201974064
1778841476288331800,6.044331787109375,0.033845570978522296,0.06284516323059797,-0.069577668089699
1778841476298311700,6.054311767578125,-0.00978723452091217,0.05843319200724363,-0.08255089396927505
1778841476308292900,6.06429296875,-0.05044190099239349,0.04419657686203718,-0.08064659471791237
1778841476318272800,6.074272705078125,-0.06763385881185531,0.0455246105954051,-0.08403718700427562
1778841476328252700,6.084252685546875,-0.06678980920314788,0.036840661141276355,-0.08168735420880839
1778841476338233600,6.094233642578125,-0.03995557829141617,0.027209201703965662,-0.08425616351719944
1778841476348214000,6.104214111328125,-0.03243862679004669,0.04185790478140115,-0.07239217752115801
1778841476358195000,6.11419482421875,-0.003913374051451683,0.026413375151157378,-0.0724404188433662
1778841476368174800,6.1241748046875,0.01595627854466438,0.009080839817225933,-0.08788261038605123
1778841476378155800,6.13415576171875,0.03440788103640079,0.00846972218155861,-0.07441277836225926
1778841476388136000,6.144135986328125,0.06179740774333477,0.01314911216944456,-0.08756565339136868
1778841476398115800,6.15411572265625,0.05054360780119896,0.023418869510293004,-0.08715824163425713
1778841476408096800,6.1640966796875,0.04973696759343147,0.02736322322189808,-0.10031610336573794
1778841476418076700,6.17407666015625,0.04209726649522781,0.03658054890036583,-0.10598941802810877
1778841476428057900,6.184057861328125,0.022349778974056243,0.03658084116131067,-0.11077285291235893
1778841476438037800,6.194037841796875,0.029801264023780822,0.03976999259144068,-0.09746173684792593
1778841476448018000,6.204017822265625,0.004437105664610862,0.03771978206336498,-0.10858263112539425
1778841476457998800,6.213998779296875,-0.0028571429967880245,0.03554126898050308,-0.10720600900994613
1778841476467978800,6.223978759765625,0.018973580539226532,0.014318155948817728,-0.10477465367717667
1778841476477960000,6.2339599609375,0.01823766748011112,0.013239420801401138,-0.112160544411093
1778841476487939800,6.24393994140625,0.019826397976279258,0.019007482808828354,-0.09687029202710837
1778841476497920800,6.253920654296875,0.029765023666620254,0.00407119496166706,-0.0953860448187217
1778841476507900700,6.263900634765625,0.035439562171697615,0.001923369278013706,-0.08232245550826191
1778841476517880800,6.273880859375,0.019007482808828354,0.014715630833804607,-0.07947327662222087
1778841476527861800,6.28386181640625,0.01431026490330696,0.017380758389830588,-0.0646832471116446
1778841476537842000,6.293842041015625,-0.0035521395236253737,0.03385784593820572,-0.06651166811520233
1778841476547822600,6.303822509765625,-0.0015127426505088806,0.03893763342052698,-0.048385004995204504
1778841476557803000,6.313802978515625,0.009179916277527808,0.03634761692732572,-0.03203309646276757
1778841476567783000,6.323782958984375,-0.00528816953599453,0.047746962819993494,-0.02464316887455061
1778841476577763800,6.333763916015625,0.02382745031118393,0.048043607679009434,-0.03405614498928189
1778841476587743700,6.34374365234375,0.020070143604278563,0.04700111288875341,-0.038165480004251004
1778841476597725000,6.353724853515625,0.012342764222621917,0.03586246375888586,-0.03862317891018465
1778841476607704800,6.363704833984375,0.04568389281034469,0.0313902867808938,-0.04312403399338945
1778841476617685800,6.373685791015625,0.04814706805348396,0.02394464695006609,-0.04886199312349781
1778841476627665700,6.383665771484375,0.054739890447258945,0.026236557279527187,-0.0579239273108542
1778841476637645800,6.393645751953125,0.06261632291078567,0.018069909697771072,-0.07407897983063012
1778841476647626800,6.403626708984375,0.0533867222726345,0.020440730482339856,-0.07540175286699086
1778841476657607000,6.41360693359375,0.0628197365283966,0.03395136944055557,-0.08914240118879824
1778841476667587800,6.423587890625,0.055581017446517944,0.03369388754814863,-0.08402841917593032
1778841476677567700,6.433567626953125,0.05661795927882194,0.03027005057930946,-0.09609105128291993
1778841476687547600,6.443547607421875,0.031580548655986786,0.04049012355953455,-0.11340711040608584
1778841476697528800,6.45352880859375,0.021136311531066893,0.05075841959565878,-0.10791651363316923
1778841476707508700,6.4635087890625,0.01600654742717743,0.07288374216407537,-0.09973883320074528
1778841476717489700,6.47348974609375,-0.0045008185505867005,0.06843962223678828,-0.10448263019435107
1778841476727469600,6.483469482421875,-0.016448445975780487,0.05492226127684116,-0.10932473646327853
1778841476737450800,6.49345068359375,-0.0009673837274312972,0.06201660345196724,-0.10115724863130598
1778841476747431000,6.503430908203125,0.005143792629241943,0.06986234851628542,-0.12472586534321307
1778841476757410800,6.513410888671875,-0.018779519271850585,0.051044835321605204,-0.12477390573602169
1778841476767391700,6.523391845703125,-0.0037847792357206343,0.05872896008342504,-0.1332018346024677
1778841476777372000,6.533371826171875,-0.011869886013865471,0.060730363033711904,-0.16419881121683866
1778841476787352800,6.543352783203125,0.011131634867191313,0.06796703628897667,-0.15931315806712953
1778841476797332700,6.553332763671875,0.012071546065807341,0.07122574582397938,-0.16557148780953138
1778841476807312600,6.563312744140625,0.03034720746874809,0.09352700948119164,-0.14750786172207445
1778841476817293800,6.5732939453125,0.06695405985414982,0.09627163201421499,-0.14054777691848575
1778841476827273700,6.583273681640625,0.09092647159397602,0.10885492699444294,-0.11558390645589679
1778841476837254700,6.593254638671875,0.11735095266103744,0.1062482516273856,-0.1011202410891652
1778841476847234800,6.60323486328125,0.13111527411937712,0.08236293364912271,-0.09305672508832066
1778841476857214700,6.613214599609375,0.14172317737340925,0.06843290023505687,-0.0744771123027429
1778841476867196000,6.62319580078125,0.12719196319580078,0.05359042815119028,-0.06418978277258575
1778841476877175800,6.63317578125,0.08220598952174187,0.045942251485586165,-0.051193048153258855
1778841476887156700,6.64315673828125,0.029815877071022987,0.03649725453108549,-0.031119799276441335
1778841476897136600,6.65313671875,-0.016979191851615904,0.006456336532533169,-0.018651801238954067
1778841476907117800,6.663117919921875,-0.04192132540643215,0.007832593321800231,-0.00874543385040015
1778841476917097700,6.67309765625,-0.0835334387332201,0.015423194581270217,-0.01915598790142685
1778841476927078000,6.683077880859375,-0.1084381628870964,0.02186725615411997,-0.006904701354540884
1778841476937058600,6.69305859375,-0.10151976180076598,0.029250936664640903,-0.011467479225434363
1778841476947039000,6.7030390625,-0.06537877336144447,0.050290509822964666,-0.040774529991485176
1778841476957020000,6.71302001953125,-0.033170448195934295,0.05930325284004211,-0.04728467907048762
1778841476966999800,6.722999755859375,0.0199812962770462,0.045070729348063464,-0.05173252532482147
1778841476976979700,6.732979736328125,0.07866378687024116,0.025604104594886302,-0.0711293727774173
1778841476986960100,6.742960205078125,0.12121464235186576,0.002547346395254135,-0.09671988723836838
1778841476996940000,6.75293994140625,0.13083061195909976,-0.023718729239702224,-0.12722177381217478
1778841477006921200,6.762921142578125,0.1386895087659359,-0.030253683966398236,-0.14752762586846946
1778841477016901400,6.7729013671875,0.09363339246511458,-0.0456400536686182,-0.1662082878757268
1778841477026881300,6.78288134765625,0.05074468333125114,-0.033039807553589345,-0.17140194752868265
1778841477036862200,6.7928623046875,-0.010969137781858443,-0.026019699658453462,-0.1713841926762834
1778841477046842000,6.802842041015625,-0.0824047269642353,-0.010646773959696293,-0.14583598298709838
1778841477056823300,6.8128232421875,-0.12532441575825215,-0.0035009938582777973,-0.1056000533843413
1778841477066803200,6.82280322265625,-0.1619862132012844,0.0029760932013392447,-0.06827299696560948
1778841477076783000,6.832783203125,-0.16578092930912972,0.029193945780396458,-0.04308627753257751
1778841477086764000,6.842763916015625,-0.14884206946790218,0.026609189984202385,-0.017318360678106545
1778841477096744000,6.852743896484375,-0.109248310226202,0.017359131079912184,-0.015811536311730743
1778841477106725000,6.86272509765625,-0.040624855855107306,0.017615443928539753,-0.020289631573855875
1778841477116705300,6.872705322265625,0.025989596781134605,0.039084348414838314,-0.03235208101775497
1778841477126685200,6.882685302734375,0.10025953260660171,0.06832534820735454,-0.05396174568161368
1778841477136666000,6.892666015625,0.18199907366037368,0.07028232749402523,-0.06825871271193028
1778841477146646300,6.902646240234375,0.2372369767576456,0.07608779890239238,-0.08768142525814474
1778841477156627200,6.912627197265625,0.24523732786178587,0.07803221096843481,-0.09444065372738987
1778841477166607000,6.922607177734375,0.2238952646255493,0.06794657802283763,-0.09900427184849978
1778841477176588000,6.932588134765625,0.16997487386763094,0.0634603725194931,-0.09783570299316197
1778841477186568200,6.942568115234375,0.11232406440973282,0.0690717826604843,-0.099724877740629
1778841477196548000,6.952548095703125,0.06437807188630104,0.06457330219745636,-0.09965334687437861
1778841477206529000,6.962529052734375,-0.02012742674946785,0.05092296250760555,-0.09902593569103628
1778841477216509200,6.97250927734375,-0.06482055495679379,0.048583413644134994,-0.08483535164464265
1778841477226490400,6.982490478515625,-0.11650105783343315,0.04061170411258936,-0.07795899960175157
1778841477236470300,6.99247021484375,-0.1383925716459751,0.05008505037873983,-0.07185534896440804
1778841477246450200,7.0024501953125,-0.1246726738512516,0.06320405967086554,-0.0625638986038044
1778841477256431000,7.01243115234375,-0.10764672024846077,0.0906286576911807,-0.05224332439117133
1778841477266411000,7.022410888671875,-0.04092413106262684,0.10651040969491005,-0.05325600856505334
1778841477276392200,7.03239208984375,0.010380524238944052,0.1017000868037343,-0.05125160994008183
1778841477286372000,7.0423720703125,0.08876958582103252,0.09703297177553176,-0.06013228754270821
1778841477296352300,7.052352294921875,0.1402314775109291,0.09601268881708383,-0.0674109733087942
1778841477306333200,7.062333251953125,0.16624094803631304,0.0810869223639369,-0.08447766078077257
1778841477316313300,7.072313232421875,0.19176935704648493,0.056878948302567005,-0.10596497770659626
1778841477326294300,7.082294189453125,0.1949690298706293,0.04450374311506748,-0.1296817707175389
1778841477336274200,7.092274169921875,0.16437047798931598,0.030816870807111263,-0.14637282981015742
1778841477346254000,7.102254150390625,0.12890110520124434,0.03014730098247528,-0.15221965614221988
1778841477356235300,7.1122353515625,0.05983399871587753,0.03421761916130781,-0.15356559085845947
1778841477366215200,7.122215087890625,0.003226560831069946,0.05486527039259672,-0.1452506573798135
1778841477376196000,7.132196044921875,-0.049185178929567336,0.06993190662115811,-0.13354381644055247
1778841477386176000,7.142176025390625,-0.07735211974978447,0.07774550298154354,-0.10439425779115408
1778841477396156200,7.15215625,-0.09134206665754317,0.06652706661373377,-0.08859762678761035
1778841477406137300,7.162137451171875,-0.08640168764591216,0.058306643018126485,-0.07565594682376832
1778841477416117200,7.1721171875,-0.08853636158704757,0.06172726511657237,-0.06694836076572537
1778841477426098200,7.18209814453125,-0.06639174979627133,0.04817804771363735,-0.04638513641487807
1778841477436078000,7.192078125,-0.043219548523426056,0.041728725443780416,-0.044806817714869975
1778841477446058200,7.202058349609375,-0.01763385636806488,0.03159779205173254,-0.05320752978082746
1778841477456039200,7.2120390625,0.019429507613182066,0.015799334417283536,-0.04538922071270644
1778841477466019000,7.22201904296875,0.05014730195999145,0.0065551207318902014,-0.06196330236215144
1778841477476000000,7.232,0.07350713475942611,0.003977671459317207,-0.06346249141134322
1778841477485980200,7.241980224609375,0.08296411441266537,0.0074114453002810474,-0.058423218602500854
1778841477495960300,7.251960205078125,0.07891688484847545,0.01312690033763647,-0.06110675859805196
1778841477505941200,7.261941162109375,0.06130757839977741,0.01213613573461771,-0.06245846546795219
1778841477515921200,7.271921142578125,0.024825813698768615,0.004383037389814853,-0.07171152004692703
1778841477525902300,7.28190234375,-0.009845686709880829,0.017341595423221588,-0.0890948722526431
1778841477535882200,7.29188232421875,-0.02652794144153595,-0.006555997514724731,-0.09314970060139893
1778841477545863200,7.30186328125,-0.06188450150489807,-0.02199088253378868,-0.1284532518358901
1778841477555843000,7.311843017578125,-0.07658405798673629,-0.010036240845918655,-0.14679785028919576
1778841477565823000,7.321822998046875,-0.08769991076290606,-0.0077060443326830855,-0.15636895784139632
1778841477575804200,7.33180419921875,-0.0730675742983818,0.012157763044536113,-0.14727905793488025
1778841477585784300,7.341784423828125,-0.03824877437353134,0.03661649699658155,-0.14144454309511928
1778841477595765000,7.351764892578125,0.0030471126109361648,0.048937049387395376,-0.10682378649301827
1778841477605745200,7.3617451171875,0.04479308145046234,0.0651657151326537,-0.08788158747274429
1778841477615725300,7.371725341796875,0.08813537957072258,0.08334493042379618,-0.0840870174953714
1778841477625706200,7.381706298828125,0.13188099779486656,0.07521276963353156,-0.06334215296730399
1778841477635686100,7.39168603515625,0.13699439528584478,0.08467559450566768,-0.0597575359461829
1778841477645667000,7.4016669921875,0.13388006265759467,0.05167115052640438,-0.06871968128718435
1778841477655647200,7.411647216796875,0.10777531506419182,0.05130523982346057,-0.06601951895039528
1778841477665627100,7.421627197265625,0.06342296311855315,0.05337532409578562,-0.07309961340446025
1778841477675608000,7.431608154296875,0.03421615785658359,0.05168167192041874,-0.05990629676710814
1778841477685588200,7.441588134765625,0.004179331511259079,0.055142626029253,-0.0767394312115386
1778841477695569200,7.451569091796875,-0.022833763098716736,0.0640659371972084,-0.06507555263116956
1778841477705549300,7.46154931640625,-0.029677345383167266,0.07794833207726479,-0.059407589997351164
1778841477715529200,7.471529296875,-0.04853051441311836,0.08149784125238657,-0.057581141755171115
1778841477725510100,7.48151025390625,-0.03395721465945244,0.08023059779554605,-0.06783036776464432
1778841477735490000,7.491489990234375,-0.026504560565948486,0.08794628673940896,-0.0712927831782028
1778841477745471200,7.50147119140625,-0.007374328160285949,0.0823655639976263,-0.06932162923570721
1778841477755451100,7.511451171875,-0.001412204885482788,0.07155687747448683,-0.10030450425948947
1778841477765431000,7.52143115234375,0.008059387814998627,0.059141048015654084,-0.10992664787918328
1778841477775412000,7.531411865234375,0.031709143471717834,0.05499123485982418,-0.13650303157232702
1778841477785392400,7.541392333984375,0.032172084808349606,0.04309416857808828,-0.1606346159292385
1778841477795373300,7.551373291015625,0.05509001905918121,0.02209726551771164,-0.15037245737295596
1778841477805353200,7.561353271484375,0.07853636109828949,0.016447276932001112,-0.16179014263991265
1778841477815333000,7.5713330078125,0.08759060516953468,0.00639262364655733,-0.16910148856658488
1778841477825314300,7.581314208984375,0.08993453794717789,-0.008642448399960994,-0.16102346911635249
1778841477835294200,7.591294189453125,0.09458382505774497,-0.008192658805847167,-0.13599168451670557
1778841477845275100,7.601275146484375,0.06724807436466217,0.021113515177369115,-0.11601378577314317
1778841477855255000,7.611255126953125,0.02387888823747635,0.021782500480115412,-0.09635233256760985
1778841477865235200,7.621235107421875,-0.0045639469146728515,0.02978869680315256,-0.06018208150118589
1778841477875216100,7.631216064453125,-0.028341128343343732,0.040217736358940596,-0.023317893353849647
1778841477885196300,7.6411962890625,-0.047754269343614576,0.046912850083410736,-0.000256824305281043
1778841477895177200,7.65117724609375,-0.0546200634598732,0.05049275439679622,0.0443627637417987
1778841477905157000,7.6611572265625,-0.05734861164093017,0.05310527498275041,0.04713854859806597
1778841477915138300,7.67113818359375,-0.052281975901126855,0.06155073950588703,0.0439293407605961
1778841477925118200,7.6811181640625,-0.03175239809155464,0.06637450640052557,0.051450091654248534
1778841477935098000,7.69109814453125,-0.009601356559991836,0.04251987582147121,0.037687523761577905
1778841477945079000,7.7010791015625,0.04292670305669308,0.03542494912445545,0.007791786387376487
1778841477955059200,7.71105908203125,0.08194646180272101,0.001893266400694847,-0.021817571793496606
1778841477965040000,7.7210400390625,0.08849310696721076,0.0044297991409897805,-0.04695252450667321
1778841477975020300,7.731020263671875,0.10181319178938865,0.002049333745241165,-0.08729048971179872
1778841477985000200,7.741000244140625,0.09049684800505638,0.006152092888951301,-0.11407879912257193
1778841477994980900,7.75098095703125,0.10045476291775703,0.039406419976055616,-0.12915961000695825
1778841478004960800,7.760960693359375,0.056629649716615674,0.03448123853355646,-0.14826587701514363
1778841478014941700,7.770941650390625,0.03142038965821266,0.02839256626963615,-0.14886336798425762
1778841478024921900,7.780921875,0.013313655081391334,0.025500644220411775,-0.1487429930076003
1778841478034901800,7.79090185546875,0.022960019826889038,0.02639759306013584,-0.15120134594514964
1778841478044882700,7.800882568359375,-0.008242927688360213,0.0021706220373511314,-0.1352769603760913
1778841478054862800,7.81086279296875,-0.004623568147420883,0.004929273095726967,-0.12001907589174807
1778841478064843800,7.82084375,-0.012902736192941664,0.0056964580759406086,-0.10874014150835573
1778841478074824000,7.830823974609375,-0.014639935249090194,0.014450842417776584,-0.08672028860840945
1778841478084803800,7.840803955078125,-0.023536358410120008,0.016534370693564414,-0.054416174918226895
1778841478094784800,7.85078466796875,-0.03868599674701691,0.029923721359670162,-0.030902612861804662
1778841478104764700,7.8607646484375,0.001692190870642662,0.037950375948846336,-0.03202577167283743
1778841478114745900,7.870745849609375,0.026318682605028152,0.041652737598121166,-0.012746888044103979
1778841478124725800,7.880725830078125,0.061496963492035865,0.04244914867281913,-0.020480112644657492
1778841478134705700,7.89070556640625,0.09338321709632873,0.06075111356079578,-0.05043112387005239
1778841478144686600,7.9006865234375,0.09722001878023147,0.07018325103372335,-0.07144640283733605
1778841478154667000,7.9106669921875,0.09536825343370436,0.06855506531000137,-0.08923669187612832
1778841478164648000,7.92064794921875,0.10455986014902591,0.04037760309576988,-0.1090019342496991
1778841478174627800,7.9306279296875,0.09245908798873424,0.020160159975290297,-0.10537640069629996
1778841478184607700,7.940607666015625,0.07549918535947799,0.00856675281524658,-0.11134181190673262
1778841478194589000,7.9505888671875,0.04212532354593277,-0.010354805275797843,-0.12374116515479981
1778841478204568800,7.96056884765625,0.02529927642941475,0.0004749240353703499,-0.1378909787993878
1778841478214549800,7.9705498046875,-0.008453940090537071,0.00646978053599596,-0.14536588125731795
1778841478224529700,7.98052978515625,-0.029770868885517117,0.029272563974559306,-0.14071575389653443
1778841478234510800,7.9905107421875,-0.05044891525506973,0.056221653437614434,-0.11608418412823229
1778841478244490800,8.00049072265625,-0.048315410357713695,0.06165040048807859,-0.09275960530526936
1778841478254471000,8.010470947265626,-0.04894318686723709,0.06355681863129138,-0.06666464845351874
1778841478264451800,8.020451904296875,-0.046757074999809266,0.08331482754647732,-0.03260503286551684
1778841478274431700,8.030431640625,0.008138882791996002,0.08626023334860801,-0.01740567363537848
1778841478284413000,8.040412841796876,0.03352700654864311,0.0933303178653121,-0.0436687901282683
1778841478294392800,8.050392822265625,0.04778232639431953,0.08137421487271786,-0.0774036307413131
1778841478304372700,8.060372802734374,0.07430442261695862,0.08993862960040569,-0.0899799114588648
1778841478314353700,8.070353759765625,0.08452712594568729,0.082239307269454,-0.12764964383542537
1778841478324333800,8.080333740234375,0.08536825294494628,0.06749561938494443,-0.13656546581666915
1778841478334314800,8.090314697265624,0.08869652058482169,0.07502689167261123,-0.15556830898299812
1778841478344295000,8.100294921875,0.07041735205054282,0.059947395962476724,-0.1502296513687819
1778841478354274800,8.11027490234375,0.05577624775767326,0.05743892027288675,-0.17263868624940515
1778841478364256000,8.120256103515626,0.024779051947593687,0.04880991587638855,-0.16802439738698302
1778841478374236000,8.13023583984375,-0.008126023310422897,0.043129824413359164,-0.152946107253246
1778841478384216800,8.140216796875,-0.004819967502355575,0.05553659378290176,-0.12173694919291883
1778841478394196700,8.15019677734375,-0.023553894066810608,0.038490474174916744,-0.10792129940614104
1778841478404176600,8.1601767578125,-0.06029927814006805,0.049415188293159,-0.06302439225502311
1778841478414157800,8.17015771484375,-0.027871172744035718,0.0429518374979496,-0.04453545342758298
1778841478424137700,8.1801376953125,-0.011350246053934096,0.03784633105248213,-0.03835482856389135
1778841478434118700,8.19011865234375,0.003777180451154709,0.04247691346257925,-0.04015387734249234
1778841478444098800,8.200098876953126,0.02233107427358627,0.06651303808838128,-0.038656076532788575
1778841478454079000,8.210078857421875,0.03555003680884838,0.06522124471217393,-0.033449922724440695
1778841478464060000,8.220059814453125,0.05347790768742561,0.03883008139282465,-0.04357961400747299
1778841478474039800,8.230039794921876,0.05472410835623741,0.04647562770992517,-0.04961359694208949
1778841478484020700,8.240020751953125,0.04692833991348743,0.04223755174875259,-0.045393495029024775
1778841478494001000,8.2500009765625,0.04833879123330116,0.0373182155251503,-0.05022646814342588
1778841478503981800,8.25998193359375,0.013248773151636122,0.011933306638896465,-0.07689834810029715
1778841478513961700,8.269961669921875,-0.019183423897624015,-0.005778583401441574,-0.08067885301969945
1778841478523941600,8.279941650390626,-0.05309095419645309,-0.0152191964417696,-0.11387578736376017
1778841478533922800,8.2899228515625,-0.07385258719623089,-0.0020201076507568357,-0.11146985873319208
1778841478543903000,8.299903076171875,-0.08740414268672465,0.01630845298320055,-0.09476389433238655
1778841478553884000,8.3098837890625,-0.10668576626181601,0.022216800244152544,-0.09500015077367424
1778841478563863800,8.31986376953125,-0.10386018744707107,0.03350362567305565,-0.07639189641550183
1778841478573843700,8.32984375,-0.06858546044826506,0.036165246097743506,-0.06169197460748255
1778841478583825000,8.339824951171876,-0.019007482808828354,0.030700843212008475,-0.06803396404534579
1778841478593804800,8.3498046875,0.03589022854864597,0.03298193988651037,-0.06346384311821311
1778841478603785700,8.35978564453125,0.07753682866692542,0.024586451984941957,-0.0902978913668543
1778841478613765600,8.369765625,0.09641688570380211,0.006897358298301696,-0.11031809488218278
1778841478623745800,8.379745849609375,0.13373860836029053,0.03366320014894009,-0.12028843088503927
1778841478633726700,8.389726806640626,0.11444237173795699,0.052658992519974704,-0.1266432798044756
1778841478643707000,8.399706787109375,0.11453940237164496,0.07895224842280149,-0.11757917192634194
1778841478653687800,8.409687744140625,0.1279968498378992,0.11525544168651103,-0.09505688592959195
1778841478663668000,8.41966796875,0.12414660415053366,0.1214592647626996,-0.05690214651506394
1778841478673647900,8.42964794921875,0.13294658119976518,0.12791209416389465,-0.03964033832978457
1778841478683628800,8.43962890625,0.12024316697120666,0.12056786888092756,-0.024316001013107595
1778841478693608700,8.449608642578125,0.08131751624941826,0.12240355987548827,-0.012446151531860232
1778841478703590000,8.45958984375,0.03591419394612312,0.12380495110601186,0.0006418781001120805
1778841478713569800,8.46956982421875,0.0026946459114551543,0.11522475428730249,0.001576345938630402
1778841478723550000,8.479550048828125,-0.043298458978533745,0.09840718273818493,-0.011126812561601399
1778841478733531000,8.48953076171875,-0.06433657083213329,0.0765355426698923,-0.001733217000775039
1778841478743510800,8.4995107421875,-0.0862041192471981,0.03299129223674536,-0.012672653764113783
1778841478753492000,8.509491943359375,-0.07006488535106181,-0.005189969858527183,-0.05376194879319519
1778841478763472000,8.519471923828124,-0.038701194316148754,-0.0029530045866966244,-0.08063863060716539
1778841478773451800,8.52945166015625,-0.0104220252931118,-0.021960195134580134,-0.11706837285999208
1778841478783432700,8.5394326171875,0.019154782325029374,-0.0182516960054636,-0.14241090390924363
1778841478793412600,8.54941259765625,0.03227379161715507,0.0005564648389816284,-0.14111352104246616
1778841478803393800,8.559393798828125,0.0459013349533081,0.010238485419750212,-0.17006887229401618
1778841478813373700,8.569373779296875,0.03456511742472648,0.008464169223606585,-0.16447901639770715
1778841478823354600,8.579354736328124,0.028452187502384183,0.011740706676244736,-0.15705584412701426
1778841478833334800,8.589334716796875,0.020674539238214492,0.007645838578045368,-0.1565728463830426
1778841478843315000,8.59931494140625,-0.011371288841962814,0.005727145475149155,-0.1337729124886915
1778841478853295900,8.6092958984375,-0.04038812448978424,0.01573152987807989,-0.14032617005705833
1778841478863275800,8.61927587890625,-0.050564650589227676,0.019123218142986297,-0.13354030930921434
1778841478873256700,8.629256591796874,-0.06817863321304321,0.013956629160046577,-0.11019337252397089
1778841478883236900,8.63923681640625,-0.05937105737924576,0.025474048474431035,-0.0918458879938349
1778841478893216800,8.649216796875,-0.03381985201537609,0.023752339248359202,-0.07713584665060043
1778841478903197700,8.65919775390625,0.004108019840717315,0.023410686203837395,-0.054208158190734684
1778841478913177900,8.669177734375,0.037009003445506096,0.04242109162211418,-0.030922157812491056
1778841478923158800,8.67915869140625,0.07293781043887138,0.05619155056029558,-0.03304430106561631
1778841478933139000,8.689138916015626,0.09593173253536223,0.049618309649825096,-0.031006292431987822
1778841478943118800,8.699118896484375,0.11007540870010853,0.04695025948435068,-0.03451817301046103
1778841478953099800,8.709099853515625,0.09575169979333877,0.03840045780390501,-0.05267864706851542
1778841478963079700,8.71907958984375,0.08720131359100342,0.049609834082424635,-0.05518756114952266
1778841478973060900,8.729060791015625,0.093205522441864,0.05124766441732645,-0.09064370912984013
1778841478983040800,8.739040771484374,0.08550035489201545,0.04514525588899851,-0.08872202035225928
1778841478993021000,8.74902099609375,0.07405775437951087,0.04668722463399171,-0.09727737499065697
1778841479003002000,8.759002197265625,0.06619535044133663,0.05088642988950014,-0.1092125082604587
1778841479012982000,8.76898193359375,0.04852174658477306,0.03806581902205944,-0.11272953993808478
1778841479022963000,8.778962890625,0.0460801986515522,0.0365358329758048,-0.10352737529613076
1778841479032943000,8.788943115234375,0.04128945724368095,0.052791386727988714,-0.1005761608077213
1778841479042923000,8.798923095703126,0.007497077757120132,0.06941577379256486,-0.08684322086833417
1778841479052904200,8.808904296875,-0.012894552886486053,0.05992138473838567,-0.06071461747530847
1778841479062884000,8.818884033203124,0.0007306523621082306,0.07046703641116618,-0.028299261962994933
1778841479072865000,8.828864990234376,-0.02019756937623024,0.08131342459619045,-0.026832988802716135
1778841479082845000,8.838844970703125,-0.021866963893175124,0.08089549144506454,-0.018701266403868794
1778841479092826000,8.848826171875,-0.02316343344449997,0.061786594088375564,-0.0309568637996912
1778841479102806000,8.858805908203125,-0.04280453798174858,0.04832914662212133,-0.041964799221977586
1778841479112786200,8.8687861328125,-0.045777416312694545,0.035275603781640526,-0.04514700945466756
1778841479122766800,8.878766845703124,-0.04833879123330116,0.017220599392056463,-0.06980572295822203
1778841479132747000,8.8887470703125,-0.055176528298854825,0.017673311595618725,-0.0663437459360808
1778841479142728200,8.898728271484375,-0.05268178887367248,0.013571429234743117,-0.07782130816411227
1778841479152708000,8.9087080078125,-0.03703881406188011,-0.0030699089646339414,-0.0845576306818053
1778841479162688000,8.91868798828125,-0.025859248399734497,0.0012780571117997168,-0.08927534338608384
1778841479172669000,8.9286689453125,-0.009932195949554443,0.02388093406409025,-0.11018486042395234
1778841479182649000,8.938649169921876,0.018576105654239655,0.04052110321968794,-0.09997483391370623
1778841479192630000,8.948630126953125,0.033845570978522296,0.029848610296845435,-0.10304233172554522
1778841479202610000,8.95860986328125,0.06952887877821921,0.03275076147913933,-0.11130246627703308
1778841479212590000,8.968590087890625,0.09783201319873333,0.025735037498176096,-0.10947378954514861
1778841479222571000,8.978571044921875,0.11268880606889724,0.013667290824651717,-0.12042451488748192
1778841479232551200,8.98855126953125,0.12473463317155838,0.024301205302774905,-0.11512677380554377
1778841479242532000,8.998531982421875,0.10273264472186565,0.04994447286427021,-0.08706599677354097
1778841479252512000,9.008511962890625,0.10412205325365066,0.05462240154743194,-0.06915478476881981
1778841479262492000,9.018491943359376,0.08916764522790908,0.0814291599303484,-0.05477934567481279
1778841479272473000,9.02847314453125,0.06743629041314125,0.09051701401025056,-0.04395586344134062
1778841479282453000,9.038452880859374,0.06837386352419852,0.08044453280717134,-0.0473439715096727
1778841479292434000,9.048433837890625,0.06537409718632697,0.06502484535723924,-0.04634337963238358
1778841479302413800,9.058413818359375,0.04550152198076248,0.060324704842269414,-0.060579264125227926
1778841479312394200,9.068394287109374,0.02275777525305748,0.04760287817418575,-0.06796188518982381
1778841479322375200,9.078375244140625,-0.0029682021558284756,0.0305254866451025,-0.09989997857920825
1778841479332355000,9.08835498046875,-0.0017114800930023192,0.015049685093760489,-0.11607658534366637
1778841479342336000,9.0983359375,-0.007934300130605696,0.005551496647298336,-0.12449804793670773
1778841479352316200,9.108316162109375,-0.016222236004471778,-0.004322539374232292,-0.11768632209524511
1778841479362296000,9.118296142578124,-0.01562485463321209,-0.0019277531921863555,-0.13100107315517961
1778841479372277000,9.128277099609376,-0.03246609931886196,0.030261282750964163,-0.1220438597176224
1778841479382257000,9.1382568359375,-0.04057750958204269,0.046800037358701224,-0.09447579810600727
1778841479392238000,9.148238037109374,-0.033551556468009947,0.07034750168472528,-0.07976937349196522
1778841479402218000,9.158218017578125,-0.03642740416526794,0.07663052747696637,-0.06176500331107527
1778841479412198100,9.1681982421875,-0.023416531422734258,0.08635755624324083,-0.03135134300999343
1778841479422179000,9.178178955078126,-0.0049824645876884455,0.09074000911116599,-0.03723755150437355
1778841479432159000,9.188158935546875,0.02675532045662403,0.08311638236492871,-0.010168744651786982
1778841479442140200,9.19814013671875,0.04284428547024727,0.07946516638100147,-0.00857862591613084
1778841479452120000,9.2081201171875,0.0580009380698204,0.06663812577277421,-0.02495302027501166
1778841479462100000,9.218099853515625,0.0625192922770977,0.048454818828403946,-0.04364084267541766
1778841479472081000,9.228080810546874,0.07154431025385856,0.04581950188875198,-0.0519372906493023
1778841479482061000,9.23806103515625,0.04704349072575569,0.04217705373317003,-0.06405727896671742
1778841479492042000,9.2480419921875,0.05375847819447517,0.04408376413732767,-0.0852374661721289
1778841479502022100,9.258022216796874,0.0400151995241642,0.038518823486566545,-0.08995002777725458
1778841479512003000,9.268003173828125,0.03783610191941261,0.018727204562723636,-0.08884323557913303
1778841479521983200,9.277983154296875,0.02773205653429031,0.014672668474912642,-0.10556984090916811
1778841479531963100,9.287963134765626,0.020000000977516173,0.016207915218174457,-0.12031736471857875
1778841479541944000,9.297944091796875,0.021269582521915433,0.018260171572864053,-0.1294523458758369
1778841479551924000,9.307924072265624,0.011015315011143684,0.017740823873877525,-0.13346665955111384
1778841479561905200,9.3179052734375,0.002853635865449905,0.018102935184538364,-0.13680153959486632
1778841479571885000,9.327885009765625,0.010668693530559539,0.014008067086338996,-0.1245875893836841
1778841479581865000,9.337864990234374,0.011559504890441894,0.01847030719220638,-0.10215908261761068
1778841479591846000,9.347845947265625,0.01047697035074234,0.03152589585930109,-0.08860233949534595
1778841479601826000,9.357825927734375,0.015222119051218033,0.03274462399929762,-0.08174092929325998
1778841479611807200,9.36780712890625,0.028020225825905798,0.04241816901266575,-0.0688975586047396
1778841479621787100,9.377787109375,0.005811316627264022,0.037460838866233824,-0.06193780259471386
1778841479631767000,9.38776708984375,0.013938508981466292,0.04238397448211908,-0.06536098197642713
1778841479641748000,9.397748046875,0.012300094124674796,0.04344517397284507,-0.06016987960673868
1778841479651728100,9.40772802734375,0.0010813654959201812,0.07919248691946268,-0.04810567659717053
1778841479661709000,9.417708984375,0.006727846950292587,0.0695841160967946,-0.06535674419272691
1778841479671689000,9.42768896484375,0.015942250019311904,0.0811430364653468,-0.06657105188593268
1778841479681669000,9.437669189453125,0.00986088427901268,0.06968816099315882,-0.07488719094097614
1778841479691650000,9.447650146484374,0.025313304954767225,0.07210662031173706,-0.07277169662434607
1778841479701630200,9.457630126953125,0.023287352085113525,0.07521335415542126,-0.08494286713972687
1778841479711611100,9.467611083984375,0.02997954320013523,0.04673515542894602,-0.10153649373985826
1778841479721591000,9.477591064453126,0.02547229490876198,0.03658931672871112,-0.10134667025618255
1778841479731571000,9.487571044921875,0.03275894478559494,0.030701719994843005,-0.11216277290079742
1778841479741552000,9.49755224609375,0.03664659987390041,0.024667992788553236,-0.11544672647491097
1778841479751532000,9.507531982421876,0.027353286349773406,0.01007306572496891,-0.09098320674989371
1778841479761513000,9.517512939453125,0.022405893075466154,0.017930793488025665,-0.09319722953755408
1778841479771492900,9.527492919921874,0.02960486466884613,0.013764905980229378,-0.08666201908253132
1778841479781473300,9.537473388671875,0.02335632566809654,0.018661738111078737,-0.07651756862178444
1778841479791454000,9.547453857421875,0.024656886872649192,0.022280220869183538,-0.05528733172956854
1778841479801434000,9.55743408203125,0.04153261834979057,0.03671791154444218,-0.06981869203764945
1778841479811415000,9.5674150390625,0.020125088661909103,0.04178980798125267,-0.06641483841091395
1778841479821395200,9.577395263671875,0.027575989189743993,0.035270050823688504,-0.06898680779077113
1778841479831375000,9.587375,0.011242694026231764,0.03115677028596401,-0.0715958577780053
1778841479841356000,9.59735595703125,0.01733107402920723,0.027829963950812817,-0.07440791952405125
1778841479851336000,9.6073359375,0.003452186280488968,0.030701135472953316,-0.07275050770584493
1778841479861317000,9.617317138671876,-0.004089315140247345,0.05047901813238859,-0.08532134506329894
1778841479871297000,9.627297119140625,0.011474164694547652,0.05650748464167118,-0.08256528782080859
1778841479881277200,9.637277099609374,0.001619125634431839,0.05488865126818418,-0.07643635661173612
1778841479891258000,9.647258056640625,0.013014379873871803,0.06524550237059593,-0.08152315835673361
1778841479901238000,9.657238037109375,0.04479775762557983,0.05507394470721483,-0.07924545921571552
1778841479911219200,9.66721923828125,0.06337269423604011,0.05065700504779815,-0.08479213355742395
1778841479921199000,9.67719921875,0.06684007808566093,0.045588908003270624,-0.08531878778003156
1778841479931179000,9.687178955078124,0.07701660418510436,0.042460839110612866,-0.08202592024710029
1778841479941160000,9.697159912109376,0.06827858645617961,0.028123978461325166,-0.08811086618397385
1778841479951140000,9.70714013671875,0.03877133694291115,0.035599428908526895,-0.07920509067270905
1778841479961121000,9.71712109375,0.014458733463287353,0.028301380854845046,-0.08686389833018184
1778841479971101000,9.727100830078125,0.005012859725952148,0.033708500595390795,-0.08621500596739351
1778841479981081000,9.7370810546875,-0.013951368463039397,0.03669394614696502,-0.06729797792099416
1778841479991061800,9.747061767578124,-0.021057401075959204,0.05947773262411356,-0.07898297235462814
1778841480001042000,9.7570419921875,-0.022429273951053617,0.0439016855686903,-0.07948255590721964
1778841480011022800,9.76702294921875,-0.013101473635435103,0.053937049631774425,-0.06765767807886004
1778841480021002800,9.777002685546876,0.006364274334907531,0.05321574961990118,-0.04064564291480929
1778841480030982700,9.786982666015625,0.019094576570391653,0.0472521650403738,-0.05465959175266325
1778841480040963800,9.7969638671875,0.027822072905302045,0.03992839802354574,-0.04915774293337017
1778841480050943700,9.80694384765625,0.0297018953025341,0.0224082311630249,-0.05149922802560031
1778841480060924700,9.816924560546875,0.011091887378692626,0.02603898888081312,-0.06163392427731305
1778841480070904800,9.82690478515625,0.010741174244880676,0.03253916455507278,-0.060363173689134415
1778841480080884700,9.836884765625,0.013389058405160904,0.03980301807820797,-0.06637662529237567
1778841480090866000,9.846865966796875,0.00788403124809265,0.03202449303120374,-0.0807331404902041
1778841480100845800,9.856845703125,0.014252981758117674,0.0372547949001193,-0.09370598277729004
1778841480110826800,9.86682666015625,0.014880758267641066,0.0355380541101098,-0.0823932191895321
1778841480120806700,9.876806640625,0.022871172499656676,0.03245236305445433,-0.07291326051950454
1778841480130786800,9.886786865234376,0.04108487458229065,0.030559388914704323,-0.07901760527659207
1778841480140767700,9.896767822265625,0.056254386663436885,0.012674772655963897,-0.08358133299555628
1778841480150748000,9.906747802734374,0.03858779706954956,0.008077215732634067,-0.08967062631398438
1778841480160728600,9.916728515625,0.04271802874207496,0.009933364993333816,-0.09354721201900393
1778841480170709000,9.926708984375,0.027799861073493956,0.02453969023376703,-0.09307100934199988
1778841480180689000,9.93668896484375,0.019015666115283963,0.030584815616905688,-0.09431582177132368
1778841480190669800,9.946669921875,0.007359715113043785,0.02023380973339081,-0.09595277532339096
1778841480200649700,9.956649658203125,0.0016506898164749145,0.01752835016697645,-0.07659242395628243
1778841480210631000,9.966630859375,-0.005307458758354187,0.02260433825701475,-0.07462514247130603
1778841480220610800,9.97661083984375,-0.010171849924325942,0.018420330570638178,-0.057272550730034705
1778841480230590700,9.9865908203125,-0.0004214402824640274,0.008091536518931389,-0.06180891551803797
1778841480240571600,9.996571533203126,0.0076233344852924345,0.03407090416699648,-0.058840713362209494
1778841480250551800,10.0065517578125,0.027587679627537727,0.03982493764907121,-0.049443756800517435
1778841480260532700,10.01653271484375,0.025113398468494415,0.042757776230573655,-0.042727563755400474
1778841480270513000,10.026512939453125,0.01683773755431175,0.043108781625330446,-0.04960296595022082
1778841480280492800,10.036492919921875,0.021921908950805664,0.05482961455732584,-0.04752510023023933
1778841480290473700,10.0464736328125,0.031191257077455518,0.040925592367351056,-0.04484897635616362
1778841480300454000,10.056453857421875,0.0367646732956171,0.05666121389865875,-0.059754321075789624
1778841480310433800,10.066433837890624,0.04225333383977413,0.05541413644701242,-0.05809858975801616
1778841480320414700,10.076414794921876,0.03200140441656112,0.04284165512174368,-0.05761000252347439
1778841480330394600,10.08639453125,0.036086043381690976,0.04111322389394045,-0.060692332578264174
1778841480340375800,10.096375732421874,0.023595395120978354,0.04535568376928568,-0.08006331493724136
1778841480350356000,10.10635595703125,0.023537527453899382,0.04112345302700996,-0.07873038583304733
1778841480360336000,10.1163359375,0.029908816051483152,0.03925239845812321,-0.0686139558903873
1778841480370316800,10.12631689453125,0.04391162244081497,0.031661212676763535,-0.07184859043005853
1778841480380296700,10.136296630859375,0.02494680972993374,0.034053953032195564,-0.08082081877365709
1778841480390278000,10.14627783203125,0.025169512569904327,0.04150426903814077,-0.06947970587424933
1778841480400257800,10.1562578125,0.025277064597606657,0.024537644407153128,-0.049994741746783256
1778841480410237700,10.16623779296875,0.019838672935962677,0.01054272906333208,-0.04806191052068025
1778841480420218600,10.176218505859374,0.0008697685718536376,0.014265841239690779,-0.055375338806584476
1778841480430198800,10.18619873046875,-0.022606384083628653,0.03110796270817518,-0.058442836618423456
1778841480440179700,10.1961796875,-0.01383271051943302,0.03158551709204912,-0.06015161329768598
1778841480450159900,10.206159912109374,-0.0015349544823169707,0.03768149587959051,-0.05833572298213839
1778841480460139800,10.216139892578125,-0.0056254386663436885,0.03378156583160162,-0.05945161180216819
1778841480470121000,10.226120849609375,0.0046259062349796294,0.02723901232033968,-0.06702387368734926
1778841480480100900,10.236100830078126,0.015779752933979034,0.042568975660204886,-0.06866137522868812
1778841480490081800,10.246081787109375,0.0269178175419569,0.02928454667329788,-0.05655545196924358
1778841480500061700,10.256061767578124,0.04168927021622657,0.030214228738844395,-0.053756395835243165
1778841480510041600,10.26604150390625,0.04795826748311519,0.050096740816533564,-0.045499622284621
1778841480520022800,10.276022705078125,0.04946574943661689,0.04943447751551866,-0.045151247238367796
1778841480530003000,10.2860029296875,0.04668693237304687,0.058528469075262546,-0.03670578271523118
1778841480539982800,10.29598291015625,0.039139001211524006,0.05450578943043947,-0.03414042573925107
1778841480549963800,10.3059638671875,0.040383448314666746,0.038871582446992396,-0.06191719819810241
1778841480559944000,10.31594384765625,0.05394669424295425,0.02653349439948797,-0.06643993631955236
1778841480569924900,10.3259248046875,0.03505143963694572,0.023550679196417332,-0.0712542412661016
1778841480579904800,10.33590478515625,0.025051439148187638,0.012401508672535418,-0.07822608957272023
1778841480589884700,10.345884765625,0.028088614886999128,0.011209084017574786,-0.07423033446744084
1778841480599865900,10.355865966796875,-0.0006353752940893173,0.015125380678474902,-0.07158851472176611
1778841480609845800,10.365845703125,-0.023183891710638997,0.032625381533801553,-0.06025876346658915
1778841480619826000,10.375825927734375,-0.028012627041339874,0.024854455271363256,-0.04196710077691823
1778841480629806800,10.385806884765625,-0.011588146463036537,0.023795301607251167,-0.030722360924072562
1778841480639786800,10.395786865234374,-0.001219312661886215,0.03447451653182507,-0.031029746372811494
1778841480649768000,10.405767822265625,0.019000468546152113,0.030703473560512066,-0.04104801317062229
1778841480659747800,10.415747802734375,0.04449965146183967,0.021674948452413082,-0.045134844092838466
1778841480669727700,10.425727783203126,0.04465162715315819,0.03283084097802639,-0.04621197180505842
1778841480679708700,10.435708740234375,0.046534956681728364,0.02944353662729263,-0.03696962128318846
1778841480689688600,10.4456884765625,0.05406126053333282,0.03075023531168699,-0.040552813532203434
1778841480699669800,10.455669677734376,0.03473345972895622,0.0363704132810235,-0.058959736631996926
1778841480709650000,10.46564990234375,0.02022328833937645,0.034463118354976174,-0.06093100017234682
1778841480719629800,10.4756298828125,0.008085106778144837,0.03009323270767927,-0.06985358068794012
1778841480729610800,10.48561083984375,-0.021923077994585035,0.029102760365605353,-0.06443338227011262
1778841480739591000,10.4955908203125,-0.036868133670091625,0.011795067211985588,-0.06837660347055644
1778841480749570800,10.50557080078125,-0.03424596847295761,0.012451777555048464,-0.06895484174992889
1778841480759551700,10.5155517578125,-0.033494273322820664,0.010911854636669159,-0.069733278776519
1778841480769531600,10.52553173828125,-0.023432313513755798,0.003158464030921459,-0.07509338103756308
1778841480779512800,10.535512939453126,-0.004782558101415634,0.0001911386579275131,-0.08097827435769141
1778841480789492700,10.54549267578125,0.014844517910480498,0.004473930543661117,-0.0550420517316088
1778841480799473000,10.555472900390624,0.0075157824575901025,0.00478664975464344,-0.04566354414205998
1778841480809453800,10.565453857421875,0.010188216537237166,0.01218494331240654,-0.05083459010440856
1778841480819433700,10.575433837890625,0.03517360471189022,0.04627572122365236,-0.041491080763004715
1778841480829415000,10.585414794921874,0.046857028242945666,0.03880348564684391,-0.03429291288722306
1778841480839394800,10.595394775390625,0.04177461041212081,0.05780600001960993,-0.04019585332069546
1778841480849374700,10.605374755859375,0.02667641000151634,0.05229688120931387,-0.04051485614199191
1778841480859355600,10.615355712890626,0.04498246654272079,0.04705488890260458,-0.0655140536462888
1778841480869335800,10.625335693359375,0.04777414308786392,0.04065466647148132,-0.06544149986673146
1778841480879316000,10.63531591796875,0.051986207824945445,0.043480829808115955,-0.08480908469222485
1778841480889297000,10.645296875,0.060974400922656054,0.0274558699414134,-0.10210570846255868
1778841480899276800,10.65527685546875,0.0779997700035572,0.042454701630771155,-0.11136859031580387
1778841480909258000,10.665258056640624,0.03842822259366512,0.03943739963620901,-0.08843308387566358
1778841480919238000,10.67523779296875,0.02856616927087307,0.03893938698619604,-0.08777830976136028
1778841480929217800,10.6852177734375,0.017267945665121076,0.027736732709407803,-0.06702880559079348
1778841480939198700,10.69519873046875,0.007609890481829642,0.04255728522241115,-0.05546751060206443
1778841480949178600,10.7051787109375,-0.015104045629501342,0.03976064024120569,-0.036831637584604324
1778841480959158800,10.71515869140625,-0.01381575938463211,0.02647211960107088,-0.027854185076616703
1778841480969139700,10.7251396484375,-0.013657353952527046,0.03327010917812585,-0.03618219723254442
1778841480979119900,10.735119873046875,-0.008381459376215934,0.014067396058142185,-0.046132513360679146
1778841480989100800,10.745100830078124,0.0026630817294120788,0.01618774921298027,-0.03604940116573125
1778841480999081000,10.7550810546875,0.009047229808568953,0.01388414844572544,-0.033231019276753065
1778841481009060900,10.765060791015625,0.0250268892288208,0.017617489755153655,-0.04540956938099116
1778841481019041800,10.775041748046876,0.035061961030960084,0.028349311649799345,-0.049647499211691315
1778841481029021700,10.785021728515625,0.021794483178853987,0.013925649499893188,-0.041718715506419535
1778841481039001900,10.795001953125,0.02549216865301132,0.015263035583496093,-0.05825020012315362
1778841481048982800,10.804982666015626,0.036380642414093015,0.023659984789788722,-0.0484268348429352
1778841481058963000,10.814962890625,0.025565233889222144,0.03261719822734594,-0.037266302674822505
1778841481068943600,10.824943603515624,0.006306991189718246,0.03671586571782827,-0.03626041356790811
1778841481078924000,10.834924072265625,0.007310030752420425,0.03259177152514457,-0.048537309480085965
1778841481088904000,10.844904052734375,0.007065700602531433,0.04503974968791008,-0.037173911683633924
1778841481098884900,10.854884765625,0.00779518392086029,0.031055940259993073,-0.05129654506035149
1778841481108864800,10.86486474609375,0.025006430962681767,0.031331834591925144,-0.048016610074229533
1778841481118844700,10.8748447265625,0.02685118204653263,0.026008593742549418,-0.06320884544383734
1778841481128825900,10.884825927734376,0.014244798451662063,0.02311228777915239,-0.060786696330830454
1778841481138805800,10.8948056640625,0.021284780091047287,0.029323125118017195,-0.059431774590536945
1778841481148786000,10.904785888671874,0.027948329633474347,0.03620937750041485,-0.05164477397613227
1778841481158766800,10.914766845703125,0.01516600494980812,0.03594020517021417,-0.039221491863206025
1778841481168747000,10.9247470703125,0.0027519290566444393,0.04798749357759952,-0.03147179105188697
1778841481178728000,10.93472802734375,-0.013951952984929085,0.05134907896518707,-0.02967690699175
1778841481188707800,10.944707763671875,-0.02074701995253563,0.06077478669732809,-0.02538907360471785
1778841481198687700,10.954687744140625,0.0032148703932762144,0.06699614543020725,-0.019654438942857084
1778841481208669000,10.9646689453125,0.02220949372053146,0.059841597500443454,-0.034999745982326566
1778841481218648800,10.97464892578125,0.042243396967649456,0.04308598527163267,-0.023297069761529565
1778841481228629000,10.98462890625,0.05186112014055252,0.03675152155309915,-0.026134265948832034
1778841481238609700,10.994609619140626,0.05661854380071163,0.03068973729610443,-0.051628334297984836
1778841481248589800,11.00458984375,0.06430091499686241,0.030599136403203008,-0.06369973423331976
1778841481258571000,11.014571044921874,0.05742343044281006,0.004988309806585311,-0.06577358136530966
1778841481268551000,11.024551025390625,0.06491232489347458,-0.009802724350988863,-0.07819865357652306
1778841481278530800,11.03453076171875,0.04289572339653969,-0.014161796343326568,-0.0854196543386206
1778841481288511700,11.04451171875,0.02066635593175888,-0.006556582036614417,-0.09769994778428226
1778841481298492000,11.054491943359375,0.029767361754179,0.00047550855726003643,-0.09280866861138493
1778841481308471800,11.064471923828124,0.009227262550592422,0.0025327333480119705,-0.07674768758323043
1778841481318452700,11.07445263671875,-0.004758008182048797,0.015287877763807772,-0.0743198759144172
1778841481328433000,11.084432861328125,-0.0025087679505348204,0.014481529816985129,-0.06483765222206711
1778841481338412800,11.094412841796874,-0.0003156418204307556,0.018904022434353827,-0.06080971188023686
1778841481348394000,11.10439404296875,-0.007443301743268967,0.030531039603054522,-0.0433325804438442
1778841481358374000,11.114373779296875,-0.006384148079156876,0.028995500598847864,-0.03679747958667576
1778841481368354800,11.124354736328126,0.0009364040672779082,0.01944938135743141,-0.0304356894697994
1778841481378334700,11.134334716796875,-0.002277297282218933,0.01615063207298517,-0.04780859334673732
1778841481388314600,11.144314697265624,-0.0005997194588184357,0.02301730297207832,-0.05875983014572411
1778841481398295800,11.1542958984375,0.003765490013360977,0.007269114220142364,-0.0641989524597302
1778841481408276000,11.16427587890625,0.010342530316114425,0.01852232964038849,-0.05666304052956402
1778841481418256000,11.174255859375,0.017799860584735868,0.016694237430393694,-0.06363887089155613
1778841481428236800,11.18423681640625,0.023345804274082182,0.02786591204702854,-0.05394428309015929
1778841481438217000,11.194217041015625,0.035545945155620574,0.0318041282787919,-0.04643862016778439
1778841481448196900,11.20419677734375,0.04061725707054138,0.037568390893936154,-0.045017062932066615
1778841481458177800,11.214177734375,0.03948094651699066,0.04865355627089739,-0.04187522124238312
1778841481468157700,11.22415771484375,0.0372048182785511,0.05183189404606819,-0.027353761273808775
1778841481478137900,11.234137939453126,0.025385785669088362,0.04013794912099838,-0.0336147213647142
1778841481488118800,11.244118896484375,0.024765023422241208,0.026712065836787223,-0.042674481861293315
1778841481498099000,11.254098876953124,0.018429975181818006,0.016914309921860694,-0.036953072007186706
1778841481508079900,11.264079833984376,-0.010422609815001488,0.015547113221883773,-0.03229143687169999
1778841481518059800,11.274059814453125,-0.01272387249469757,0.009392682245373726,-0.04504625249393284
1778841481528040000,11.2840400390625,-0.028085692277550697,0.026715865229070185,-0.043580344659835096
1778841481538020900,11.294020751953125,-0.002034136176109314,0.022506430840492246,-0.04951156133972108
1778841481548000800,11.304000732421875,-0.0005517886638641358,0.010111059647798537,-0.042394130549952384
1778841481557980700,11.313980712890626,0.02222702937722206,0.023171324490010737,-0.049627698532678184
1778841481567961900,11.3239619140625,0.024563947892189023,0.032250703002512454,-0.04303637397624552
1778841481577942000,11.33394189453125,0.03372808207869529,0.033280630572140216,-0.06134612031187862
1778841481587922000,11.343921875,0.049992988181114195,0.049808279263973236,-0.05664641818832606
1778841481597902800,11.35390283203125,0.05016366857290268,0.040243455322086806,-0.046354412483051416
1778841481607882800,11.3638828125,0.023251111727952956,0.02246317622065544,-0.05589227535277605
1778841481617863000,11.37386279296875,0.0007762450695037841,0.04085954139381647,-0.03547233193013817
1778841481627843800,11.38384375,0.007727379381656646,0.021519173368811605,-0.041968489016406235
1778841481637823700,11.39382373046875,-0.012097849550843238,0.018913374784588814,-0.041508506821841
1778841481647804700,11.4038046875,0.002429272973537445,0.018177461725473402,-0.043839141726493835
1778841481657784800,11.413784912109374,0.010166004705429077,0.017083236747980117,-0.05220847227349877
1778841481667765000,11.423764892578125,0.02286357371509075,0.029962299804389476,-0.04246737844925374
1778841481677746000,11.433745849609375,0.04642039039134979,0.03266863615363836,-0.0360740606829524
1778841481687725800,11.443725830078124,0.04077040180563926,0.02338204463124275,-0.04206128186639398
1778841481697705700,11.453705810546875,0.03357844447493553,0.03722995271980762,-0.04076554296743125
1778841481707687000,11.46368701171875,0.0190881468296051,0.028901392574608324,-0.04162541119977831
1778841481717666800,11.473666748046876,0.005513794985413551,0.027082360453903675,-0.031183987086452543
1778841481727646700,11.483646728515625,-0.024364041405916213,0.018682780899107455,-0.039161322641186415
1778841481737627600,11.493627685546874,-0.026485855865478514,0.01493687236905098,-0.0492085963377729
1778841481747608000,11.503608154296876,-0.014184008175134658,0.022388065157830712,-0.04916015408616513
1778841481757588000,11.513587890625,-0.018313070803880692,0.013989070124924181,-0.04216974720954895
1778841481767569000,11.52356884765625,-0.0024596681118011473,0.019707155510783194,-0.056928523065336044
1778841481777548800,11.533548828125,0.014884265398979185,0.002208323699235916,-0.06763908297624438
1778841481787528700,11.54352880859375,0.025494506740570067,0.009106851041316985,-0.04397146286927164
1778841481797510000,11.553510009765626,0.04181786503195763,0.02732727512568235,-0.040241811354272065
1778841481807489800,11.56348974609375,0.043994624549150464,0.013308394384384154,-0.041300563159584996
1778841481817470000,11.573469970703124,0.04948913031220436,0.02885316951870918,-0.03649710840061307
1778841481827451000,11.583450927734376,0.03435352050065994,0.03939268371164799,-0.0418163306619972
1778841481837431000,11.59343115234375,0.02160918973982334,0.04559972165822983,-0.033929924793727695
1778841481847412000,11.603411865234374,0.01614800172448158,0.04072364005446434,-0.04708711067177355
1778841481857391900,11.613391845703125,0.004227262306213378,0.031740123131871224,-0.03642473728414625
1778841481867371800,11.623371826171875,0.006494038194417953,0.02116816797405481,-0.0482405184905976
1778841481877353000,11.63335302734375,0.020146715971827506,0.021876023982465267,-0.03694225835222751
1778841481887332900,11.643332763671875,0.004936871880292892,0.023092998556792733,-0.05047587632723152
1778841481897312800,11.653312744140624,0.0029015666604042052,0.025514672745764255,-0.05360171673018485
1778841481907293700,11.663293701171876,0.023622867649793624,0.020927929477393626,-0.04567282342705875
1778841481917273900,11.67327392578125,0.009339490753412246,0.01650046842396259,-0.040862756264209744
1778841481927253800,11.683253662109376,0.009869067585468292,0.02881137620359659,-0.04936433488875627
1778841481937235000,11.69323486328125,0.0011363105535507202,0.026973347121477125,-0.0388378628404811
1778841481947214800,11.70321484375,0.020249591824412345,0.030410628093779084,-0.03946319166459143
1778841481957194800,11.71319482421875,0.02450315761566162,0.03130494658499956,-0.04629453552197665
1778841481967175700,11.72317578125,0.013325930041074753,0.036899990113079546,-0.03480970330294222
1778841481977155800,11.73315576171875,0.02279869178533554,0.04892331312298774,-0.03375350878089666
1778841481987136000,11.743135986328125,0.028987609553337096,0.042860944344103334,-0.04912248895689845
1778841481997117200,11.7531171875,0.05707037922143936,0.03155512195378542,-0.03862633898165077
1778841482007097300,11.763097412109374,0.05639934809207916,0.025307167474925518,-0.051086482506245375
1778841482017077200,11.7730771484375,0.04144143293499946,0.013345511524379253,-0.047371772832050914
1778841482027058200,11.78305810546875,0.03939560632109642,0.009613631519675253,-0.04070928273554891
1778841482037038000,11.7930380859375,0.009673837274312973,0.01563654507100582,-0.04199124883748591
1778841482047018200,11.803018310546875,-0.0045090018570423124,0.013067571365833282,-0.030094840142875907
1778841482056999200,11.812999267578125,-0.01177577798962593,0.01804682108312845,-0.030749723855033516
1778841482066979000,11.82297900390625,-0.012061024671792984,0.0062593526557087895,-0.02405530425030738
1778841482076960000,11.8329599609375,-0.025470541343092918,0.012532441575825214,-0.03843395821470767
1778841482086940400,11.8429404296875,-0.013836802172660827,0.01039718311280012,-0.0326364874497056
1778841482096920300,11.85292041015625,0.00551905568242073,0.013302256904542445,-0.04810929332636296
1778841482106901200,11.8629013671875,0.00779518392086029,0.02225888582020998,-0.05183547424264252
1778841482116881200,11.872881103515626,0.006494038194417953,0.03170885121077299,-0.055556430994533
1778841482126861000,11.882861083984375,0.026771102547645566,0.025705811403691766,-0.04314578916747123
1778841482136842200,11.89284228515625,0.0212099612891674,0.02092676043361425,-0.03271444805674255
1778841482146822100,11.902822265625,0.019307927060127256,0.021758827343583104,-0.03587561550140381
1778841482156802300,11.91280224609375,0.02854161935150623,0.02161561948060989,-0.034122415158525106
1778841482166783000,11.922782958984374,0.0332049349874258,0.027406477841734885,-0.036368330921791495
1778841482176763100,11.93276318359375,0.01542436362504959,0.036032559628784655,-0.0392584628727287
1778841482186743300,11.942743408203125,0.005565817433595657,0.013046528577804565,-0.04253562137987464
1778841482196724200,11.95272412109375,0.001516249781847,0.019442951616644857,-0.037705643940158184
1778841482206704000,11.9627041015625,0.003496609944105148,0.03162351101487875,-0.043428515098989005
1778841482216684000,11.97268408203125,0.007663666495680808,0.013526713310182095,-0.04239913551863283
1778841482226665200,11.982665283203126,0.00874327842593193,0.013487842604517936,-0.05663260885868221
1778841482236645000,11.99264501953125,0.011260814204812048,0.006509528024494647,-0.05359652909841388
1778841482246625300,12.002625244140624,0.033249943172931666,0.006172843416035175,-0.05367814296726137
1778841482256606200,12.012606201171875,0.027760113584995267,0.015297522374987601,-0.06018288521878421
1778841482266586000,12.022586181640625,0.03917290348112583,0.003967150065302848,-0.05726191973816603
1778841482276566300,12.032566162109376,0.03391162195205688,0.012679741092026233,-0.054635553289949894
1778841482286547200,12.042547119140625,0.0023427637338638303,0.023129531174898146,-0.04086823615692556
1778841482296527000,12.052527099609375,0.01827390783727169,0.022754268121719358,-0.036406470975093544
1778841482306507000,12.062507080078126,0.009237783944606781,0.021842121712863444,-0.022102453149482608
1778841482316488200,12.07248828125,-0.0002367313653230667,0.026787176899611947,-0.021781039175391197
1778841482326468400,12.08246826171875,0.0007388356685638427,0.02834872712790966,-0.019146233692392704
1778841482336448300,12.0924482421875,-0.012119476860761641,0.018598609746992588,-0.022469167570024727
1778841482346429200,12.10242919921875,0.005200491252541542,0.013626374292373657,-0.026123086967691778
1778841482356409000,12.1124091796875,-0.0055716626524925225,0.006952011094987392,-0.027229806100577115
1778841482366389200,12.12238916015625,-0.00007598784565925598,0.015105799195170402,-0.0422031745551154
1778841482376370200,12.1323701171875,-0.001699205133318901,0.0014221417576074599,-0.03957739262878895
1778841482386350000,12.14235009765625,0.003288520151376724,0.020472879186272618,-0.043072541268169874
1778841482396331000,12.1523310546875,0.012443301987648009,0.013546294793486595,-0.0409515305262059
1778841482406311200,12.162311279296874,0.02056348007917404,0.02641103706359863,-0.04420461403802037
1778841482416291300,12.172291259765625,0.04220072686970234,0.030167174726724623,-0.03334891003537923
1778841482426272300,12.182272216796875,0.03307049495279789,0.02933160068541765,-0.03684928283914923
1778841482436252200,12.192252197265624,0.04000935430526733,0.03184153767973184,-0.03304689488150179
1778841482446232000,12.202232177734375,0.031740707653760906,0.024786942993104456,-0.03156933314222842
1778841482456213200,12.212213134765625,0.03159223909378051,0.031489363241195674,-0.03417005369253456
1778841482466193200,12.222193115234376,-0.0005740004956722259,0.027278759808838367,-0.021754151168465612
1778841482476173000,12.232173095703125,-0.004140753066539764,0.027910043449699877,-0.024224377206899225
1778841482486154000,12.242154052734374,0.007992752319574355,0.002618365804851055,-0.022369689250923693
