time,seconds_elapsed,z,y,x
1778841470319989800,0.07598974609375,-0.001670871046371758,-0.0009840605780482292,0.027564387768507004
1778841470329970700,0.085970703125,0.007286937441676855,-0.010838555172085762,0.03657253086566925
1778841470339950600,0.09595068359375,0.010188451036810875,-0.018971050158143044,0.039174437522888184
1778841470349931800,0.105931884765625,0.01041366159915924,-0.023312751203775406,0.036736562848091125
1778841470359911700,0.11591162109375,0.002097674645483494,-0.023303164169192314,0.02937159314751625
1778841470369892600,0.125892578125,-0.0038404548540711403,-0.016232039779424667,0.011287697590887547
1778841470379873800,0.135873779296875,-0.008214697241783142,-0.0074662454426288605,-0.009491882286965847
1778841470389853700,0.145853759765625,-0.01021550688892603,-0.0006448369240388274,-0.03009781986474991
1778841470399834600,0.155834716796875,-0.009287129156291485,0.003611160907894373,-0.03912460431456566
1778841470409814500,0.165814453125,-0.0045561823062598705,-0.004399337340146303,-0.0390506237745285
1778841470419795700,0.175795654296875,0.0004423046193551272,-0.01657664217054844,-0.03640557453036308
1778841470429776600,0.185776611328125,0.005887203849852085,-0.027842318639159203,-0.04556840658187866
1778841470439756500,0.195756591796875,0.0027799205854535103,-0.02566789835691452,-0.052161842584609985
1778841470449737700,0.20573779296875,0.0010320879518985748,-0.012575531378388405,-0.05713103711605072
1778841470459717600,0.215717529296875,0.002620397135615349,0.0019421577453613281,-0.05677204206585884
1778841470469698600,0.225698486328125,0.002031726064160466,0.017378903925418854,-0.05376351252198219
1778841470479678700,0.2356787109375,0.005461078602820635,0.023807242512702942,-0.046867791563272476
1778841470489660000,0.245659912109375,0.014833995141088963,-0.0024987650103867054,-0.030950307846069336
1778841470499640600,0.255640625,0.031020687893033028,-0.04341663792729378,-0.017590029165148735
1778841470509620700,0.265620849609375,0.049251243472099304,-0.07173716276884079,-0.007621839642524719
1778841470519601700,0.2756015625,0.05808547884225845,-0.11717414855957031,0.0044689117930829525
1778841470529581800,0.285581787109375,0.07023489475250244,-0.15768791735172272,0.03049248829483986
1778841470539562800,0.295562744140625,0.08870205283164978,-0.18373416364192963,0.07593107223510742
1778841470549543700,0.305543701171875,0.10658493638038635,-0.20170705020427704,0.13752174377441406
1778841470559523600,0.315523681640625,0.13098376989364624,-0.22585339844226837,0.21546980738639832
1778841470569504800,0.3255048828125,0.1496906280517578,-0.26587268710136414,0.2971346080303192
1778841470579484700,0.335484619140625,0.17271579802036285,-0.3218528628349304,0.37298837304115295
1778841470589465600,0.345465576171875,0.20542319118976593,-0.41527119278907776,0.4395225942134857
1778841470599445500,0.355445556640625,0.2503558099269867,-0.5411513447761536,0.5071324706077576
1778841470609426700,0.3654267578125,0.27994173765182495,-0.7310402989387512,0.5846470594406128
1778841470619407600,0.37540771484375,0.3051948845386505,-0.9641172289848328,0.6921039819717407
1778841470629387500,0.385387451171875,0.34454545378685,-1.1784909963607788,0.8366388082504272
1778841470639368700,0.39536865234375,0.3926418721675873,-1.3365730047225952,1.0043424367904663
1778841470649348600,0.4053486328125,0.4145343005657196,-1.431042194366455,1.131928563117981
1778841470659329500,0.41532958984375,0.37082332372665405,-1.4858980178833008,1.134467363357544
1778841470669310500,0.425310546875,0.25045454502105713,-1.540040135383606,0.9604496955871582
1778841470679291000,0.435290771484375,0.14930447936058044,-1.564620018005371,0.6783626079559326
1778841470689271800,0.445271728515625,0.11610423773527145,-1.5324300527572632,0.402696430683136
1778841470699251700,0.455251708984375,0.14281882345676422,-1.4699839353561401,0.1763431578874588
1778841470709232600,0.465232666015625,0.16498936712741852,-1.3996376991271973,0.019835317507386208
1778841470719212800,0.475212890625,0.15971416234970093,-1.346419334411621,-0.07401259243488312
1778841470729193700,0.48519384765625,0.12784411013126373,-1.3081696033477783,-0.1372235119342804
1778841470739173600,0.495173583984375,0.07370541244745255,-1.2923582792282104,-0.1557391881942749
1778841470749154600,0.505154541015625,0.021930895745754242,-1.2620373964309692,-0.12441055476665497
1778841470759135700,0.5151357421875,-0.017803160473704338,-1.1921098232269287,-0.09197133779525757
1778841470769115600,0.52511572265625,-0.06360633671283722,-1.1129341125488281,-0.08839764446020126
1778841470779096600,0.5350966796875,-0.10793731361627579,-1.0441830158233643,-0.12112367898225784
1778841470789076500,0.545076416015625,-0.15299558639526367,-0.9125002026557922,-0.1746838539838791
1778841470799057700,0.5550576171875,-0.17809069156646729,-0.6710571050643921,-0.242232546210289
1778841470809038600,0.56503857421875,-0.18188436329364777,-0.4571150243282318,-0.3001323342323303
1778841470819018500,0.5750185546875,-0.1815984696149826,-0.33109623193740845,-0.3344554305076599
1778841470828999700,0.584999755859375,-0.1774894744157791,-0.2705628275871277,-0.3550499379634857
1778841470838979800,0.594979736328125,-0.1688413769006729,-0.2177930325269699,-0.37911662459373474
1778841470848960500,0.60496044921875,-0.15272419154644012,-0.14498940110206604,-0.4137829840183258
1778841470858940700,0.614940673828125,-0.14332260191440582,-0.06613918393850327,-0.4508752226829529
1778841470868921900,0.624921875,-0.11462065577507019,0.0160872433334589,-0.48749127984046936
1778841470878902800,0.63490283203125,0.022136228159070015,0.5020654797554016,-0.33143913745880127
1778841470888882700,0.644882568359375,0.14062292873859406,0.5198976993560791,-0.09144597500562668
1778841470898863900,0.65486376953125,0.18090395629405975,0.6817288994789124,0.26239013671875
1778841470908843800,0.66484375,0.2254200279712677,0.4096084237098694,0.644331693649292
1778841470918824700,0.67482470703125,0.20981496572494507,0.027561727911233902,0.9134952425956726
1778841470928804600,0.6848046875,0.18879787623882294,0.08056259900331497,1.036681056022644
1778841470938785800,0.694785888671875,0.1456213742494583,0.12628614902496338,1.0649017095565796
1778841470948766700,0.7047666015625,0.08274836838245392,0.1344771832227707,1.023324966430664
1778841470958746600,0.71474658203125,0.023290103301405907,0.12872236967086792,0.8947811722755432
1778841470968727600,0.7247275390625,-0.03061305172741413,0.15074323117733002,0.6979842185974121
1778841470978707700,0.734707763671875,-0.07324200123548508,0.2150937169790268,0.4941578805446625
1778841470988689200,0.744689208984375,-0.09807945042848587,0.2086484730243683,0.33072397112846375
1778841470998669000,0.7546689453125,-0.09934897720813751,0.1181553304195404,0.20419132709503174
1778841471008650200,0.764650146484375,-0.07759559154510498,-0.05101379007101059,0.07218316197395325
1778841471018631200,0.774631103515625,-0.048675794154405594,-0.2091538906097412,-0.08382002264261246
1778841471028611000,0.784611083984375,-0.037255097180604935,-0.3288201093673706,-0.24205413460731506
1778841471038592000,0.794592041015625,-0.050982892513275146,-0.4201795756816864,-0.37955448031425476
1778841471048572400,0.804572509765625,-0.07974442839622498,-0.4406038522720337,-0.49748292565345764
1778841471058553300,0.81455322265625,-0.1157333254814148,-0.3752099275588989,-0.5811207890510559
1778841471068533200,0.824533203125,-0.12726955115795135,-0.25970160961151123,-0.6143257021903992
1778841471078514200,0.83451416015625,-0.11611383408308029,-0.17318323254585266,-0.5929245352745056
1778841471088495400,0.844495361328125,-0.09384610503911972,-0.14054404199123383,-0.5192471146583557
1778841471098475300,0.854475341796875,-0.02417062036693096,0.00751917902380228,-0.42550599575042725
1778841471108456200,0.864456298828125,0.03135950490832329,0.12402240931987762,-0.33418509364128113
1778841471118436000,0.87443603515625,-0.002026947680860758,0.0846417173743248,-0.2614392638206482
1778841471128417300,0.884417236328125,-0.08910886943340302,0.04758670553565025,-0.20711851119995117
1778841471138397200,0.894397216796875,-0.22105519473552704,0.08665953576564789,-0.1045207753777504
1778841471148378000,0.904378173828125,-0.3674865961074829,0.192764014005661,0.12758195400238037
1778841471158358000,0.91435791015625,-0.4738316833972931,0.2909278869628906,0.5006162524223328
1778841471168339200,0.924339111328125,-0.4622286558151245,0.1347261220216751,0.9525083899497986
1778841471178320100,0.934320068359375,-0.4281873106956482,-0.03448234498500824,1.3100289106369019
1778841471188300000,0.944300048828125,-0.3140242397785187,-0.11354567110538483,1.4145838022232056
1778841471198281200,0.95428125,-0.04194533824920654,-0.2237297147512436,1.294979453086853
1778841471208261400,0.964261474609375,0.299186110496521,-0.31090325117111206,1.159447193145752
1778841471218242000,0.974241943359375,0.5739944577217102,-0.3946780562400818,1.0821433067321777
1778841471228222200,0.98422216796875,0.70908123254776,-0.6734297275543213,1.1258796453475952
1778841471238203400,0.994203369140625,0.6224448680877686,-0.8307149410247803,1.2778427600860596
1778841471248183300,1.004183349609375,0.45025360584259033,-0.38270339369773865,1.4030028581619263
1778841471258164200,1.014164306640625,0.021194634959101677,-0.40771687030792236,1.3743627071380615
1778841471268145400,1.0241455078125,-0.45266497135162354,-0.21856550872325897,1.1870484352111816
1778841471278125300,1.034125244140625,-0.7735468745231628,0.02034103311598301,0.8401951193809509
1778841471288106200,1.044106201171875,-0.9124757051467896,0.12447728961706161,0.4108078181743622
1778841471298086100,1.054086181640625,-0.8954572677612305,0.07616505026817322,-0.0624028779566288
1778841471308067300,1.0640673828125,-0.740153968334198,0.006952688097953796,-0.5543004274368286
1778841471318047200,1.074047119140625,-0.4984951317310333,-0.006905996240675449,-0.9846267700195312
1778841471328028200,1.084028076171875,-0.21652282774448395,-0.11385668069124222,-1.3032540082931519
1778841471338009000,1.094009033203125,0.1076592281460762,-0.33601829409599304,-1.4715148210525513
1778841471347989200,1.1039892578125,0.3965381681919098,-0.7402411103248596,-1.4266070127487183
1778841471357970200,1.11397021484375,0.5434198379516602,-1.028118371963501,-1.1505718231201172
1778841471367950000,1.1239501953125,0.5110682845115662,-0.7481899857521057,-0.7202273607254028
1778841471377931000,1.133930908203125,0.2908557653427124,-0.4127979576587677,-0.2639322578907013
1778841471387911400,1.143911376953125,-0.04791669547557831,-0.008718912489712238,0.13020038604736328
1778841471397892400,1.153892333984375,-0.3845728039741516,0.444447785615921,0.27766144275665283
1778841471407872300,1.163872314453125,-0.662423312664032,0.6306331157684326,0.1391368806362152
1778841471417853200,1.173853271484375,-0.7569635510444641,0.7657633423805237,-0.14357736706733704
1778841471427834400,1.18383447265625,-0.5853680968284607,0.7799468040466309,-0.395603209733963
1778841471437814300,1.193814208984375,-0.2551097273826599,0.5914791822433472,-0.5223851203918457
1778841471447795200,1.203795166015625,0.06949423253536224,0.3651895821094513,-0.5650947690010071
1778841471457775000,1.213775146484375,0.3117615580558777,0.2768055200576782,-0.5735114216804504
1778841471467756300,1.22375634765625,0.40301716327667236,0.3130250573158264,-0.5477405190467834
1778841471477736200,1.233736083984375,0.3274795114994049,0.315703421831131,-0.4672238826751709
1778841471487717000,1.243717041015625,0.170216903090477,0.25601133704185486,-0.32389336824417114
1778841471497697000,1.253697021484375,0.0011429215082898736,0.25160351395606995,-0.14648768305778503
1778841471507678200,1.26367822265625,-0.14120954275131226,0.3522937595844269,0.030242886394262314
1778841471517659100,1.2736591796875,-0.24645474553108215,0.378801554441452,0.1911846399307251
1778841471527639000,1.28363916015625,-0.3199404180049896,0.32509729266166687,0.3187335133552551
1778841471537620200,1.2936201171875,-0.34888818860054016,0.26808276772499084,0.40144863724708557
1778841471547600400,1.303600341796875,-0.33311206102371216,0.1560194194316864,0.43855100870132446
1778841471557581300,1.313581298828125,-0.28510645031929016,0.11226634681224823,0.40919363498687744
1778841471567561200,1.323561279296875,-0.23244665563106537,0.20794466137886047,0.3459899127483368
1778841471577542400,1.33354248046875,-0.18685387074947357,0.23220446705818176,0.2734334170818329
1778841471587522300,1.343522216796875,-0.1315813511610031,0.18399560451507568,0.21118251979351044
1778841471597503200,1.353503173828125,-0.059720735996961594,0.14145055413246155,0.18125924468040466
1778841471607483100,1.363483154296875,0.01489613950252533,0.07672639191150665,0.18681731820106506
1778841471617464300,1.37346435546875,0.06251559406518936,0.06772810220718384,0.2326684296131134
1778841471627445200,1.3834453125,0.07475173473358154,0.10928614437580109,0.30059176683425903
1778841471637425200,1.393425048828125,0.0509534552693367,0.12094519287347794,0.3645971119403839
1778841471647406000,1.403406005859375,-0.0062609026208519936,0.10860707610845566,0.4087403416633606
1778841471657386200,1.41338623046875,-0.07568498700857162,0.0742267295718193,0.430372416973114
1778841471667367200,1.4233671875,-0.14405837655067444,0.08071281760931015,0.41935810446739197
1778841471677347000,1.43334716796875,-0.18957233428955078,0.06899411231279373,0.39538273215293884
1778841471687328000,1.443327880859375,-0.19395627081394196,0.026099707931280136,0.3612402081489563
1778841471697308400,1.453308349609375,-0.16521011292934418,-0.016260532662272453,0.31482556462287903
1778841471707289300,1.463289306640625,-0.11761950701475143,-0.05728829279541969,0.26300951838493347
1778841471717270000,1.47327001953125,-0.07259264588356018,-0.13024264574050903,0.2199680358171463
1778841471727250200,1.483250244140625,-0.029490375891327858,-0.1919715702533722,0.19940657913684845
1778841471737231400,1.4932314453125,-0.008388020098209381,-0.19962921738624573,0.20412597060203552
1778841471747211300,1.503211181640625,-0.01615503430366516,-0.21521595120429993,0.23501785099506378
1778841471757192200,1.513192138671875,-0.038635578006505966,-0.2729564905166626,0.30385738611221313
1778841471767172000,1.523172119140625,-0.06878398358821869,-0.2954183518886566,0.40056952834129333
1778841471777153300,1.5331533203125,-0.11085527390241623,-0.24180303514003754,0.4746730625629425
1778841471787133200,1.54313330078125,-0.14489153027534485,-0.21417860686779022,0.5036383867263794
1778841471797114000,1.553114013671875,-0.14796987175941467,-0.22351698577404022,0.48229289054870605
1778841471807094000,1.563093994140625,-0.10595430433750153,-0.24705210328102112,0.43013644218444824
1778841471817075200,1.5730751953125,-0.012632613070309162,-0.2745910584926605,0.33193743228912354
1778841471827055000,1.58305517578125,0.12345559895038605,-0.2960049510002136,0.21539777517318726
1778841471837036000,1.5930361328125,0.2769370377063751,-0.2757856845855713,0.0947808101773262
1778841471847017200,1.603017333984375,0.4646858274936676,-0.24702352285385132,-0.019723940640687943
1778841471856997400,1.612997314453125,0.6606177091598511,-0.2700725197792053,-0.08835545927286148
1778841471866978000,1.62297802734375,0.8303945064544678,-0.3547682464122772,-0.08489947021007538
1778841471876958200,1.632958251953125,0.978688657283783,-0.40179872512817383,-0.009884892031550407
1778841471886939400,1.642939453125,1.0934040546417236,-0.45436206459999084,0.1337292641401291
1778841471896919300,1.652919189453125,1.164687156677246,-0.46994397044181824,0.3165355920791626
1778841471906900200,1.662900146484375,1.2197051048278809,-0.4472604990005493,0.5298028588294983
1778841471916880100,1.672880126953125,1.3036874532699585,-0.569799542427063,0.8680354952812195
1778841471926861300,1.682861328125,1.4723113775253296,-0.6169350743293762,1.3448821306228638
1778841471936841200,1.69284130859375,1.6489527225494385,-0.5902174711227417,1.7699689865112305
1778841471946822100,1.702822265625,1.8238859176635742,-0.708554744720459,2.093303918838501
1778841471956803300,1.71280322265625,2.004770517349243,-0.7886466383934021,2.319675922393799
1778841471966783200,1.722783203125,2.1768622398376465,-0.7555651068687439,2.4372406005859375
1778841471976764200,1.73276416015625,2.3606348037719727,-0.7625654339790344,2.4755642414093018
1778841471986743800,1.742743896484375,2.5752503871917725,-0.8373773097991943,2.4644267559051514
1778841471996724500,1.752724365234375,2.8178634643554688,-0.8456994891166687,2.4259510040283203
1778841472006704600,1.76270458984375,3.069875955581665,-0.8239513039588928,2.379471778869629
1778841472016685800,1.772685791015625,3.3167953491210938,-0.9602532386779785,2.351130962371826
1778841472026665700,1.782665771484375,3.5181822776794434,-1.3202543258666992,2.399559497833252
1778841472036646700,1.792646728515625,3.5446927547454834,-1.8836640119552612,2.5643835067749023
1778841472046626600,1.80262646484375,3.442518472671509,-2.1919567584991455,2.627336025238037
1778841472056607700,1.812607666015625,3.2504501342773438,-2.866024971008301,2.5939834117889404
1778841472066587600,1.822587646484375,3.0644497871398926,-3.416539430618286,2.4326541423797607
1778841472076568600,1.832568603515625,2.831787586212158,-3.650174617767334,2.1174521446228027
1778841472086549800,1.8425498046875,2.5430517196655273,-3.642594575881958,1.7956311702728271
1778841472096529700,1.85252978515625,2.271526575088501,-3.3872597217559814,1.5828454494476318
1778841472106510600,1.862510498046875,2.055490016937256,-3.014986515045166,1.643298625946045
1778841472116490500,1.872490478515625,2.042029857635498,-2.686235189437866,1.9342362880706787
1778841472126471700,1.8824716796875,2.188187837600708,-2.5094704627990723,2.271413803100586
1778841472136451800,1.892451904296875,2.4048361778259277,-2.4845383167266846,2.523233413696289
1778841472146432500,1.9024326171875,2.6527299880981445,-2.486863374710083,2.673884153366089
1778841472156412700,1.91241259765625,2.8933820724487305,-2.6012637615203857,2.7471206188201904
1778841472166393900,1.922393798828125,3.1915481090545654,-2.7706854343414307,2.741147518157959
1778841472176373800,1.932373779296875,3.5339910984039307,-2.828120470046997,2.6859285831451416
1778841472186354700,1.942354736328125,3.800771474838257,-2.6764960289001465,2.6360573768615723
1778841472196334600,1.95233447265625,3.9271788597106934,-2.3954427242279053,2.592881441116333
1778841472206315800,1.962315673828125,3.963466167449951,-2.057304620742798,2.507647752761841
1778841472216295700,1.972295654296875,3.9562480449676514,-1.7368699312210083,2.3280727863311768
1778841472226276600,1.982276611328125,3.939675807952881,-1.5906720161437988,2.062506675720215
1778841472236257800,1.9922578125,3.968132734298706,-1.6946297883987427,1.7353777885437012
1778841472246237700,2.00223779296875,4.114263534545898,-1.9813953638076782,1.3537315130233765
1778841472256218600,2.012218505859375,4.374475479125977,-2.180840492248535,0.9773584604263306
1778841472266198500,2.022198486328125,4.636697292327881,-2.186697244644165,0.6793877482414246
1778841472276179700,2.0321796875,4.846156597137451,-2.1235179901123047,0.5073978900909424
1778841472286160000,2.042159912109375,4.975763320922852,-2.033644437789917,0.37233594059944153
1778841472296140500,2.052140625,5.0067901611328125,-1.9963630437850952,0.22093547880649567
1778841472306120700,2.06212060546875,4.963893890380859,-1.9776066541671753,0.045153796672821045
1778841472316102000,2.072101806640625,4.904579162597656,-1.9301831722259521,-0.1633528172969818
1778841472326081800,2.082081787109375,4.9294915199279785,-1.9787472486495972,-0.36184003949165344
1778841472336062700,2.092062744140625,5.082681655883789,-2.0035343170166016,-0.5086265802383423
1778841472346042600,2.102042724609375,5.380608081817627,-2.0173802375793457,-0.5758575201034546
1778841472356023800,2.11202392578125,5.724124908447266,-1.8392335176467896,-0.5837149024009705
1778841472366003700,2.122003662109375,6.052735805511475,-1.460703730583191,-0.5329697132110596
1778841472375984600,2.131984619140625,6.308730602264404,-0.926307201385498,-0.42934316396713257
1778841472385965600,2.141965576171875,6.396419525146484,-0.1814270168542862,-0.47860318422317505
1778841472395945700,2.15194580078125,6.341463088989258,0.4717113673686981,-0.664523720741272
1778841472405926700,2.1619267578125,6.230537414550781,0.9087269902229309,-0.8834906816482544
1778841472415906600,2.171906494140625,6.052978992462158,1.0801522731781006,-1.0792826414108276
1778841472425887500,2.181887451171875,5.747404098510742,1.1190799474716187,-1.1814947128295898
1778841472435868000,2.191867919921875,5.24847412109375,1.1153662204742432,-1.1173434257507324
1778841472445848600,2.2018486328125,4.584532737731934,1.243471384048462,-0.9139106869697571
1778841472455828700,2.211828857421875,3.791525363922119,1.4325681924819946,-0.703220546245575
1778841472465809700,2.2218095703125,2.9723434448242188,1.4974687099456787,-0.5618250370025635
1778841472475789800,2.231789794921875,2.2360756397247314,1.5448081493377686,-0.49865514039993286
1778841472485770800,2.241770751953125,1.6999675035476685,1.6983110904693604,-0.539366602897644
1778841472495750700,2.251750732421875,1.4040948152542114,1.9963687658309937,-0.7184498310089111
1778841472505731600,2.261731689453125,1.337931752204895,2.2975966930389404,-1.016825556755066
1778841472515711700,2.271711669921875,1.4228835105895996,2.3311495780944824,-1.3684900999069214
1778841472525692700,2.281692626953125,1.5331511497497559,2.1585707664489746,-1.7053539752960205
1778841472535672600,2.291672607421875,1.5249289274215698,1.9126930236816406,-2.020681858062744
1778841472545653500,2.301653564453125,1.29598069190979,1.830173134803772,-2.3387084007263184
1778841472555633700,2.311633544921875,0.8488074541091919,1.6964184045791626,-2.7072927951812744
1778841472565614600,2.321614501953125,0.41201654076576233,1.0239555835723877,-3.127075433731079
1778841472575594800,2.3315947265625,0.11051906645298004,-0.11896200478076935,-3.537389039993286
1778841472585575700,2.34157568359375,-0.05774158239364624,-0.9924796223640442,-3.899653911590576
1778841472595556600,2.351556640625,-0.011441194452345371,-1.508022665977478,-4.141018390655518
1778841472605536800,2.361536865234375,0.35639142990112305,-1.7542699575424194,-4.287655353546143
1778841472615517700,2.371517578125,0.7174705862998962,-1.5313093662261963,-4.432549476623535
1778841472625497600,2.38149755859375,0.704551637172699,-1.1334307193756104,-4.619430065155029
1778841472635478800,2.391478759765625,0.369547963142395,-0.7198473215103149,-4.801485538482666
1778841472645458700,2.401458740234375,-0.036352403461933136,0.12143834680318832,-4.140524387359619
1778841472655439600,2.411439697265625,-0.17261730134487152,0.013532389886677265,-2.5859968662261963
1778841472665419500,2.42141943359375,-0.07977516949176788,-0.7877793312072754,-1.6664565801620483
1778841472675400700,2.431400634765625,-0.014686979353427887,-1.537817120552063,-1.1390697956085205
1778841472685380600,2.441380615234375,0.01838446594774723,-1.9077155590057373,-0.8551666736602783
1778841472695361500,2.451361572265625,0.030090391635894775,-2.0175106525421143,-0.7610305547714233
1778841472705341700,2.461341796875,0.014892698265612125,-2.0295586585998535,-0.8326376676559448
1778841472715322600,2.471322509765625,-0.04450325295329094,-1.936547875404358,-0.9261689186096191
1778841472725302800,2.481302734375,-0.07717947661876678,-1.9605507850646973,-0.8953253030776978
1778841472735283700,2.49128369140625,-0.10053646564483643,-2.1987838745117188,-0.7602564692497253
1778841472745263600,2.501263671875,-0.16157962381839752,-2.13926362991333,-0.7714316248893738
1778841472755244800,2.511244873046875,-0.166475310921669,-1.7634769678115845,-0.9897522330284119
1778841472765224700,2.521224609375,-0.006685339380055666,-1.1784145832061768,-1.0841032266616821
1778841472775205600,2.53120556640625,0.25218990445137024,-0.7312542200088501,-1.0201106071472168
1778841472785185500,2.541185546875,0.46593335270881653,-0.7422994375228882,-0.8729718327522278
1778841472795166700,2.551166748046875,0.5392538905143738,-1.0257103443145752,-0.8154494166374207
1778841472805146600,2.561146728515625,0.4531938433647156,-1.2479910850524902,-0.8429287075996399
1778841472815127600,2.57112744140625,0.32355836033821106,-1.2126823663711548,-0.9866414070129395
1778841472825107500,2.581107421875,0.3004826009273529,-0.8562576770782471,-1.094883918762207
1778841472835088600,2.591088623046875,0.5146750211715698,-0.3939904272556305,-1.1360998153686523
1778841472845068800,2.60106884765625,0.7957586646080017,0.047010112553834915,-1.0758100748062134
1778841472855049700,2.6110498046875,1.0967164039611816,0.21641723811626434,-1.073290228843689
1778841472865029600,2.621029541015625,1.2155423164367676,0.13821172714233398,-1.201717734336853
1778841472875010800,2.6310107421875,0.9271968603134155,-0.2880988121032715,-1.2506463527679443
1778841472884991700,2.64099169921875,0.506147027015686,-0.5848397612571716,-1.398532748222351
1778841472894971600,2.6509716796875,0.3377327620983124,-0.31248918175697327,-1.6388788223266602
1778841472904952800,2.660952880859375,0.1912117898464203,0.4415286183357239,-1.8621207475662231
1778841472914932700,2.6709326171875,0.12338347733020782,0.8840618133544922,-2.004551410675049
1778841472924913700,2.68091357421875,0.11784588545560837,0.8520667552947998,-1.8828001022338867
1778841472934893600,2.6908935546875,0.01966100186109543,0.6310680508613586,-1.5778350830078125
1778841472944874800,2.700874755859375,-0.17362484335899353,0.3972686231136322,-1.278846025466919
1778841472954854700,2.710854736328125,-0.2920377552509308,0.028806986287236214,-0.8485239744186401
1778841472964835600,2.720835693359375,-0.36335569620132446,-0.4186255633831024,-0.33690330386161804
1778841472974815500,2.7308154296875,-0.49586209654808044,-0.7606739401817322,0.0063203792087733746
1778841472984797400,2.74079736328125,-0.6656137704849243,-0.8559268116950989,0.10759797692298889
1778841472994777300,2.75077734375,-0.7692371010780334,-0.7934213876724243,-0.016824636608362198
1778841473004758500,2.760758544921875,-0.6068710684776306,-0.9633590579032898,-0.3065608739852905
1778841473014738400,2.770738525390625,-0.1990063637495041,-1.4453203678131104,-0.6139525175094604
1778841473024719400,2.78071923828125,0.09124505519866943,-1.6271777153015137,-0.8865405917167664
1778841473034699500,2.790699462890625,0.2956774830818176,-1.3074510097503662,-1.2662276029586792
1778841473044680700,2.8006806640625,0.3835357129573822,-1.0134201049804688,-1.5057767629623413
1778841473054660600,2.81066064453125,0.46961289644241333,-0.9680269360542297,-2.3501198291778564
1778841473064641500,2.8206416015625,0.42164111137390137,-0.8921412229537964,-3.3958547115325928
1778841473074621400,2.830621337890625,0.37858420610427856,-0.5603548288345337,-3.946910858154297
1778841473084602600,2.8406025390625,0.3961291015148163,-0.7728694677352905,-3.716095447540283
1778841473094582500,2.85058251953125,-0.061530228704214096,-1.0681140422821045,-3.2395660877227783
1778841473104563500,2.8605634765625,-0.32185420393943787,-1.4663606882095337,-2.797999620437622
1778841473114543400,2.87054345703125,-0.17886823415756226,-1.6514452695846558,-1.7048145532608032
1778841473124524500,2.880524658203125,0.22341743111610413,-1.7193169593811035,-1.0229182243347168
1778841473134504400,2.89050439453125,0.44685959815979004,-1.196187973022461,-0.5005583167076111
1778841473144485400,2.9004853515625,0.8339370489120483,-0.49875783920288086,-0.10434334725141525
1778841473154465500,2.910465576171875,1.1275627613067627,0.03183368593454361,0.21832126379013062
1778841473164446700,2.92044677734375,0.961217999458313,0.19535471498966217,0.4288947284221649
1778841473174426600,2.930426513671875,0.637292742729187,0.031632211059331894,0.4484202563762665
1778841473184407600,2.940407470703125,0.15974457561969757,-0.08915599435567856,0.2734015882015228
1778841473194387500,2.950387451171875,-0.10597988963127136,0.05628522112965584,0.2667689919471741
1778841473204368600,2.96036865234375,-0.2368907630443573,0.09542009979486465,0.35162901878356934
1778841473214348500,2.9703486328125,-0.3364920914173126,0.26868584752082825,0.31864070892333984
1778841473224329500,2.98032958984375,-0.3908597230911255,0.600265383720398,0.37014275789260864
1778841473234309400,2.990309326171875,-0.26055672764778137,1.0598303079605103,0.40305063128471375
1778841473244290600,3.00029052734375,0.024520840495824814,1.4260919094085693,0.387234628200531
1778841473254270500,3.0102705078125,0.26386070251464844,1.545663833618164,0.35031309723854065
1778841473264251400,3.02025146484375,0.4633462429046631,1.2946319580078125,0.3012031316757202
1778841473274231600,3.0302314453125,0.7317593097686768,0.6142703890800476,0.21239255368709564
1778841473284212500,3.04021240234375,0.9519688487052917,-0.3555222451686859,0.08285906910896301
1778841473294192600,3.050192626953125,1.0234930515289307,-0.967793881893158,0.0539078451693058
1778841473304173600,3.060173583984375,1.0304114818572998,-0.9588087201118469,0.0890791043639183
1778841473314153500,3.070153564453125,1.0046730041503906,-0.3842032551765442,0.1402655839920044
1778841473324134700,3.080134765625,0.6779723167419434,0.12140489369630814,0.02456243894994259
1778841473334114600,3.090114501953125,0.43697676062583923,0.33178821206092834,-0.11859259009361267
1778841473344095500,3.100095458984375,0.3160657286643982,0.455499529838562,-0.17333626747131348
1778841473354075400,3.110075439453125,0.18970966339111328,0.3202857971191406,-0.15449173748493195
1778841473364056600,3.120056640625,0.08105355501174927,-0.1856447458267212,-0.07139043509960175
1778841473374036500,3.130036376953125,0.03862167149782181,-0.5904588103294373,0.03708411008119583
1778841473384017400,3.140017333984375,-0.23665401339530945,-0.6658412218093872,0.05166386440396309
1778841473393997300,3.149997314453125,-0.47988584637641907,-0.16420181095600128,-0.03899306803941727
1778841473403978500,3.159978515625,-0.39959853887557983,0.5311471819877625,-0.176669180393219
1778841473413958700,3.169958740234375,-0.25035178661346436,0.6382275819778442,-0.589403510093689
1778841473423939600,3.179939697265625,-0.015432517975568771,0.3816201686859131,-0.9642311930656433
1778841473433919700,3.189919677734375,0.2528226375579834,0.11967483907938004,-1.0633280277252197
1778841473443900700,3.199900634765625,0.3853057026863098,-0.10930247604846954,-0.9825981855392456
1778841473453880600,3.209880615234375,0.40216830372810364,-0.308149516582489,-0.8824225664138794
1778841473463861500,3.219861572265625,0.34418562054634094,-0.6378528475761414,-0.7819862961769104
1778841473473841700,3.229841552734375,0.27612587809562683,-0.9979761242866516,-0.6672317385673523
1778841473483822600,3.239822509765625,0.21611328423023224,-1.3528342247009277,-0.5919332504272461
1778841473493802500,3.249802490234375,0.13406714797019958,-1.582580804824829,-0.4897320568561554
1778841473503783400,3.259783447265625,0.039484985172748566,-1.6713560819625854,-0.35808825492858887
1778841473513763600,3.269763671875,0.03366304934024811,-1.6765942573547363,-0.16000553965568542
1778841473523744500,3.27974462890625,0.029298171401023865,-1.5751181840896606,0.08400685340166092
1778841473533724700,3.289724609375,-0.10246358811855316,-1.4710503816604614,0.31311672925949097
1778841473543705300,3.299705322265625,-0.29215964674949646,-1.6125736236572266,0.5222986936569214
1778841473553685800,3.309685791015625,-0.4972049593925476,-1.9063702821731567,0.736240029335022
1778841473563666700,3.319666748046875,-0.5778965353965759,-2.2495486736297607,0.9345855712890625
1778841473573646600,3.329646484375,-0.46650752425193787,-2.577733278274536,1.0533082485198975
1778841473583627500,3.33962744140625,-0.21371550858020782,-2.4973504543304443,1.0108537673950195
1778841473593607700,3.349607666015625,-0.002953179879114032,-1.979848861694336,0.8855860829353333
1778841473603588600,3.359588623046875,0.13262514770030975,-1.3217047452926636,0.7481768131256104
1778841473613568500,3.369568603515625,0.1867087185382843,-0.6583364605903625,0.6053041219711304
1778841473623549400,3.379549560546875,0.17384590208530426,-0.13655926287174225,0.46315786242485046
1778841473633529600,3.389529541015625,0.12159343808889389,0.2239016741514206,0.3256300985813141
1778841473643510500,3.399510498046875,0.10204051434993744,0.5133917927742004,0.2140977382659912
1778841473653490400,3.409490478515625,0.17745132744312286,0.6486029624938965,0.19375889003276825
1778841473663471400,3.419471435546875,0.30549293756484985,0.676666259765625,0.26536038517951965
1778841473673451800,3.42945166015625,0.44279882311820984,0.7214434146881104,0.3324986696243286
1778841473683432700,3.4394326171875,0.5281347632408142,0.9157564043998718,0.3205922245979309
1778841473693412600,3.44941259765625,0.6091039180755615,1.1464496850967407,0.22562333941459656
1778841473703393500,3.4593935546875,0.6246972680091858,1.1551969051361084,0.12962837517261505
1778841473713373700,3.469373779296875,0.5280271172523499,0.9460015892982483,0.031249599531292915
1778841473723354600,3.479354736328125,0.39856261014938354,0.6911355257034302,-0.09152745455503464
1778841473733334500,3.48933447265625,0.2743983864784241,0.3126946687698364,-0.20741888880729675
1778841473743315500,3.4993154296875,0.1151570975780487,-0.07621605694293976,-0.3066493272781372
1778841473753295600,3.509295654296875,-0.05121852457523346,-0.33872732520103455,-0.40595436096191406
1778841473763276500,3.519276611328125,-0.15932607650756836,-0.4297501742839813,-0.4505567252635956
1778841473773256400,3.52925634765625,-0.21183037757873535,-0.38777977228164673,-0.4386316239833832
1778841473783237400,3.5392373046875,-0.235917866230011,-0.29654839634895325,-0.3879929482936859
1778841473793217500,3.549217529296875,-0.23578011989593506,-0.16430258750915527,-0.31201109290122986
1778841473803198500,3.559198486328125,-0.24245133996009827,-0.06910549849271774,-0.23997950553894043
1778841473813178600,3.5691787109375,-0.23484393954277039,-0.04037722945213318,-0.18091830611228943
1778841473823158500,3.579158447265625,-0.20841020345687866,-0.06665623933076859,-0.12181903421878815
1778841473833139700,3.5891396484375,-0.15631823241710663,-0.09513182193040848,-0.057073064148426056
1778841473843119600,3.59911962890625,-0.08569138497114182,-0.12619709968566895,0.009717696346342564
1778841473853100500,3.6091005859375,-0.011287451721727848,-0.1370452344417572,0.06417854130268097
1778841473863080400,3.61908056640625,0.03960834816098213,-0.10999543219804764,0.10082175582647324
1778841473873061600,3.6290615234375,0.0628415048122406,-0.06623809784650803,0.11276550590991974
1778841473883041500,3.63904150390625,0.068862684071064,-0.02750084362924099,0.09950189292430878
1778841473893022500,3.6490224609375,0.06619712710380554,-0.00861050933599472,0.05965488404035568
1778841473903002600,3.659002685546875,0.051845941692590714,-0.00078635971294716,0.0009768831077963114
1778841473912983600,3.668983642578125,0.026443112641572952,0.010757111944258213,-0.06607405841350555
1778841473922963700,3.678963623046875,-0.0003721885150298476,0.021137937903404236,-0.11589483916759491
1778841473932944600,3.688944580078125,-0.027893293648958206,0.028966832906007767,-0.1479630321264267
1778841473942924500,3.698924560546875,-0.04384027048945427,0.03432316705584526,-0.1569131314754486
1778841473952905700,3.70890576171875,-0.053975995630025864,0.03023574873805046,-0.1407165825366974
1778841473962885600,3.7188857421875,-0.06112762168049812,0.024083958938717842,-0.11712412536144257
1778841473972866600,3.728866455078125,-0.05978884920477867,0.029762350022792816,-0.10296143591403961
1778841473982846500,3.738846435546875,-0.05861365422606468,0.022440755739808083,-0.08775055408477783
1778841473992826600,3.74882666015625,-0.05435020104050636,0.0037917043082416058,-0.07662919163703918
1778841474002806800,3.758806884765625,-0.052741821855306625,-0.01578916236758232,-0.07382145524024963
1778841474012787500,3.768787353515625,-0.04649218171834946,-0.024582119658589363,-0.07775947451591492
1778841474022767600,3.778767578125,-0.0393168143928051,-0.02581643871963024,-0.09048403799533844
1778841474032748800,3.788748779296875,-0.029343275353312492,-0.017340930178761482,-0.11213553696870804
1778841474042728700,3.798728759765625,-0.019296778365969658,-0.005394719075411558,-0.134251207113266
1778841474052709600,3.808709716796875,-0.007507762871682644,0.0070060244761407375,-0.15496127307415009
1778841474062689500,3.818689453125,0.005048942286521196,0.011667470447719097,-0.16458168625831604
1778841474072670700,3.828670654296875,0.015930619090795517,0.016138918697834015,-0.15895256400108337
1778841474082650600,3.838650634765625,0.021821551024913788,0.01937958039343357,-0.14376485347747803
1778841474092631600,3.848631591796875,0.026661314070224762,0.018799278885126114,-0.1223442405462265
1778841474102611500,3.858611572265625,0.02512725442647934,0.02053816057741642,-0.1024584099650383
1778841474112592600,3.868592529296875,0.021660884842276573,0.020880909636616707,-0.08583123236894608
1778841474122572500,3.878572509765625,0.014265109784901142,0.01928669400513172,-0.0773751512169838
1778841474132552700,3.888552734375,0.00385720981284976,0.014638679102063179,-0.07533489912748337
1778841474142533600,3.89853369140625,-0.005401092115789652,0.008570712991058826,-0.07789501547813416
1778841474152513500,3.908513427734375,-0.012812137603759766,0.0003359534894116223,-0.0890113115310669
1778841474162494700,3.91849462890625,-0.018125809729099274,-0.005322927609086037,-0.1009896919131279
1778841474172474600,3.928474609375,-0.018231425434350967,-0.00674910843372345,-0.11338350176811218
1778841474182455600,3.93845556640625,-0.014587155543267727,-0.002330125542357564,-0.12309711426496506
1778841474192435500,3.948435546875,-0.005841934122145176,0.0033653462305665016,-0.12626707553863525
1778841474202416600,3.958416748046875,0.004276213701814413,0.009476501494646072,-0.1248558759689331
1778841474212396500,3.968396484375,0.014177479781210423,0.014015176333487034,-0.12071039527654648
1778841474222377500,3.97837744140625,0.022776827216148376,0.018082886934280396,-0.10807369649410248
1778841474232357400,3.988357421875,0.028612185269594193,0.01498325914144516,-0.09810391813516617
1778841474242338600,3.998338623046875,0.03088359534740448,0.010541906580328941,-0.08920922130346298
1778841474252318700,4.008318603515625,0.028169462457299232,0.003660007379949093,-0.08677959442138672
1778841474262299600,4.018299560546875,0.023677509278059006,0.002235482446849346,-0.08670902252197266
1778841474272279600,4.028279541015625,0.023102866485714912,0.006281728390604258,-0.07800982892513275
1778841474282260700,4.0382607421875,0.019253000617027283,0.004036683589220047,-0.06764081120491028
1778841474292240600,4.04824072265625,0.01745615340769291,0.005467135924845934,-0.06432435661554337
1778841474302221600,4.0582216796875,0.013427057303488255,0.012698683887720108,-0.056379616260528564
1778841474312201500,4.068201416015625,0.013528990559279919,0.015837786719202995,-0.04624816030263901
1778841474322182700,4.0781826171875,0.015577760525047779,0.01192560326308012,-0.03357177972793579
1778841474332162600,4.08816259765625,0.020719541236758232,-0.0005146240000613034,-0.018994180485606194
1778841474342142500,4.098142578125,0.03176979348063469,-0.01273400615900755,-0.005422179587185383
1778841474352123400,4.108123291015625,0.04468299448490143,-0.02928771823644638,0.004183849785476923
1778841474362103800,4.118103759765625,0.05437050759792328,-0.041284725069999695,0.00292523973621428
1778841474372084700,4.128084716796875,0.061184849590063095,-0.047877706587314606,-0.003968606702983379
1778841474382064600,4.138064697265625,0.06595882773399353,-0.05638597533106804,-0.01344253495335579
1778841474392045600,4.148045654296875,0.0670243352651596,-0.06619065254926682,-0.022397950291633606
1778841474402025700,4.158025634765625,0.06680702418088913,-0.07278863340616226,-0.028509637340903282
1778841474412006700,4.168006591796875,0.06772208213806152,-0.069064199924469,-0.0347646065056324
1778841474421986600,4.177986572265625,0.07062529772520065,-0.05544092133641243,-0.04518449306488037
1778841474431967500,4.187967529296875,0.06813310831785202,-0.03328395634889603,-0.0678892731666565
1778841474441947600,4.19794775390625,0.06305479258298874,-0.014364358969032764,-0.09252616763114929
1778841474451928600,4.207928466796875,0.05578756704926491,-0.009773335419595242,-0.11797027289867401
1778841474461908500,4.217908447265625,0.0387222059071064,-0.002907925983890891,-0.14206284284591675
1778841474471889400,4.227889404296875,0.024959787726402283,0.03192302584648132,-0.14754308760166168
1778841474481869800,4.237869873046875,0.027967507019639015,0.06668855994939804,-0.13541239500045776
1778841474491850500,4.2478505859375,0.036391086876392365,0.06975065916776657,-0.12086673080921173
1778841474501830700,4.25783056640625,0.04671590030193329,0.05490447208285332,-0.11072038114070892
1778841474511810600,4.267810546875,0.050183601677417755,0.038898076862096786,-0.10082194209098816
1778841474521791700,4.277791748046875,0.051837243139743805,0.025588881224393845,-0.09144974499940872
1778841474531771600,4.287771728515625,0.04869737848639488,0.012545517645776272,-0.08256996423006058
1778841474541752600,4.297752685546875,0.04686282202601433,-0.0006195419700816274,-0.07944631576538086
1778841474551732500,4.307732421875,0.04025232419371605,-0.009106503799557686,-0.07657808810472488
1778841474561713700,4.317713623046875,0.03700028732419014,-0.015277081169188023,-0.0740547627210617
1778841474571693600,4.327693603515625,0.04101979359984398,-0.02185136266052723,-0.07045390456914902
1778841474581674500,4.337674560546875,0.043552037328481674,-0.033704884350299835,-0.06421729922294617
1778841474591654700,4.347654541015625,0.04390055686235428,-0.0420924611389637,-0.05831174924969673
1778841474601635600,4.357635498046875,0.04506728798151016,-0.04656550660729408,-0.05234786868095398
1778841474611615700,4.36761572265625,0.04295247048139572,-0.042844537645578384,-0.04895686358213425
1778841474621596700,4.3775966796875,0.04284479841589928,-0.03757057711482048,-0.04284384101629257
1778841474631576600,4.38757666015625,0.039711058139801025,-0.030920930206775665,-0.035995256155729294
1778841474641557800,4.397557861328125,0.039365313947200775,-0.02599191665649414,-0.023080263286828995
1778841474651537700,4.40753759765625,0.0420556403696537,-0.022459499537944794,-0.008887212723493576
1778841474661517600,4.417517578125,0.04777279123663902,-0.024321721866726875,0.012913159094750881
1778841474671498500,4.42749853515625,0.05427596718072891,-0.03155939280986786,0.03656522557139397
1778841474681478400,4.437478515625,0.06379043310880661,-0.041828371584415436,0.060310494154691696
1778841474691459600,4.44745947265625,0.07247047126293182,-0.05104290693998337,0.0799718126654625
1778841474701439700,4.457439697265625,0.08081717789173126,-0.05352647975087166,0.09020339697599411
1778841474711420400,4.46742041015625,0.09069324284791946,-0.057299379259347916,0.09228785336017609
1778841474721400600,4.477400634765625,0.10004344582557678,-0.05427973344922066,0.08986862748861313
1778841474731381800,4.4873818359375,0.10861962288618088,-0.04719279706478119,0.08327837288379669
1778841474741361700,4.497361572265625,0.11521223932504654,-0.04359105974435806,0.0734609067440033
1778841474751342600,4.507342529296875,0.12605439126491547,-0.035539139062166214,0.06770075857639313
1778841474761322500,4.517322509765625,0.13491792976856232,-0.027983753010630608,0.06419683992862701
1778841474771303700,4.5273037109375,0.14733725786209106,-0.020847061648964882,0.06846299022436142
1778841474781283600,4.53728369140625,0.15846633911132812,-0.010444487445056438,0.07232750207185745
1778841474791263500,4.547263427734375,0.17105618119239807,-0.02160758711397648,0.0795973613858223
1778841474801244400,4.557244384765625,0.18289873003959656,-0.05044083669781685,0.08650480210781097
1778841474811224600,4.567224609375,0.1843053698539734,-0.05869767814874649,0.08886489272117615
1778841474821205500,4.57720556640625,0.18048426508903503,-0.05642573535442352,0.08989420533180237
1778841474831185700,4.587185546875,0.1726304441690445,-0.054498136043548584,0.08353167027235031
1778841474841166600,4.59716650390625,0.15969228744506836,-0.046559788286685944,0.07274667173624039
1778841474851146800,4.607146728515625,0.14056561887264252,-0.03479121997952461,0.06447514146566391
1778841474861127700,4.617127685546875,0.1213810071349144,-0.01709078624844551,0.05122644826769829
1778841474871107600,4.627107666015625,0.09665434807538986,-0.002333470154553652,0.03219575062394142
1778841474881088500,4.637088623046875,0.0719953402876854,0.006079189479351044,0.015169098041951656
1778841474891068700,4.647068603515625,0.049593571573495865,0.0077485512010753155,-0.0027089612558484077
1778841474901048600,4.657048583984375,0.025463197380304337,0.0006144754006527364,-0.022141247987747192
1778841474911029500,4.667029541015625,0.004843775648623705,-0.00347812008112669,-0.03953861817717552
1778841474921009700,4.677009765625,-0.013187956064939499,-0.003013398265466094,-0.051893554627895355
1778841474930990600,4.686990478515625,-0.029233809560537338,0.0018357085064053535,-0.059601813554763794
1778841474940970800,4.696970703125,-0.03690717741847038,0.011963710188865662,-0.06333103775978088
1778841474950951700,4.70695166015625,-0.04198233410716057,0.023828405886888504,-0.06140422448515892
1778841474960931600,4.716931640625,-0.039978038519620895,0.03306611254811287,-0.05585792288184166
1778841474970912800,4.726912841796875,-0.03428029268980026,0.038758400827646255,-0.05021948739886284
1778841474980892700,4.736892578125,-0.027456209063529968,0.04197283461689949,-0.04108857363462448
1778841474990874000,4.7468740234375,-0.021305639296770096,0.040567219257354736,-0.032389093190431595
1778841475000854000,4.75685400390625,-0.012219090946018696,0.03652980923652649,-0.022921543568372726
1778841475010835000,4.7668349609375,-0.005711607169359922,0.03259957209229469,-0.015659138560295105
1778841475020814800,4.77681494140625,0.0008863742696121335,0.023655878379940987,-0.008522133342921734
1778841475030794800,4.786794677734375,0.007701669819653034,0.014665312133729458,-0.011433500796556473
1778841475040776000,4.79677587890625,0.01231485977768898,0.006493102293461561,-0.02180890552699566
1778841475050756000,4.806756103515625,0.014141521416604519,-0.001659899135120213,-0.03577665239572525
1778841475060736800,4.81673681640625,0.01576226018369198,-0.01023790705949068,-0.045868709683418274
1778841475070717000,4.826717041015625,0.01780783385038376,-0.016683287918567657,-0.05420387163758278
1778841475080698000,4.836697998046875,0.016809949651360512,-0.019470760598778725,-0.05936532840132713
1778841475090678000,4.846677978515625,0.017435258254408836,-0.015454447828233242,-0.060767482966184616
1778841475100659000,4.856658935546875,0.016062771901488304,-0.00791669450700283,-0.060063332319259644
1778841475110638800,4.866638916015625,0.01058964617550373,0.0035357314627617598,-0.05748273432254791
1778841475120619000,4.876618896484375,0.005510199349373579,0.013708474114537239,-0.05803241208195686
1778841475130600000,4.886599853515625,-0.0006369089824147522,0.02497151494026184,-0.06034030765295029
1778841475140579800,4.896579833984375,-0.0010327983181923628,0.026716290041804314,-0.06401307135820389
1778841475150560800,4.906560791015625,-0.0015880673890933394,0.019319627434015274,-0.06421041488647461
1778841475160541200,4.916541259765625,0.0036847619339823723,0.01804383285343647,-0.06640487909317017
1778841475170521900,4.92652197265625,0.008716804906725883,0.007563229184597731,-0.06156910955905914
1778841475180502000,4.936501953125,0.01220827829092741,0.0035957335494458675,-0.05739377439022064
1778841475190483000,4.94648291015625,0.015685567632317543,-0.0013897038297727704,-0.05317506194114685
1778841475200463000,4.956463134765625,0.019774070009589195,-0.0015785915311425924,-0.04964691773056984
1778841475210444000,4.966444091796875,0.022678779438138008,0.003815907519310713,-0.05034812539815903
1778841475220424000,4.976423828125,0.022447600960731506,-0.003554853843525052,-0.04986075684428215
1778841475230403800,4.98640380859375,0.023602880537509918,-0.002798782428726554,-0.05188902094960213
1778841475240385000,4.996385009765625,0.02258937619626522,0.0007832618430256844,-0.055463533848524094
1778841475250365000,5.006364990234375,0.017398608848452568,0.007339963689446449,-0.053857382386922836
1778841475260345900,5.016345947265625,0.011311626061797142,0.01916336826980114,-0.05672401189804077
1778841475270326000,5.026325927734375,0.007579471915960312,0.031063169240951538,-0.055960215628147125
1778841475280307000,5.036306884765625,0.003963473718613386,0.03921162337064743,-0.056250497698783875
1778841475290287000,5.046287109375,-0.0021450186613947153,0.04467696323990822,-0.05537724867463112
1778841475300268000,5.05626806640625,-0.006542513146996498,0.04525651037693024,-0.057359714061021805
1778841475310248000,5.066248046875,-0.010896516032516956,0.043081771582365036,-0.0639081597328186
1778841475320227800,5.076227783203125,-0.014873341657221317,0.04082402586936951,-0.07712885737419128
1778841475330209000,5.086208984375,-0.0198806282132864,0.033644236624240875,-0.09824909269809723
1778841475340189000,5.09618896484375,-0.02414541505277157,0.025412406772375107,-0.1299218088388443
1778841475350169900,5.106169921875,-0.028113480657339096,0.010643082670867443,-0.17184819281101227
1778841475360149800,5.116149658203125,-0.0256764218211174,-0.004004302900284529,-0.22230631113052368
1778841475370131000,5.126130859375,-0.021714193746447563,-0.01924348995089531,-0.27056998014450073
1778841475380111000,5.136111083984375,-0.01480622123926878,-0.03591301664710045,-0.3074611723423004
1778841475390091800,5.146091796875,-0.003659820416942239,-0.04851124808192253,-0.3297949433326721
1778841475400072000,5.156072021484375,0.007703088689595461,-0.055885009467601776,-0.32995685935020447
1778841475410053000,5.16605322265625,0.019686058163642883,-0.05839818716049194,-0.3007667660713196
1778841475420033000,5.176032958984375,0.034326255321502686,-0.0601675920188427,-0.24413253366947174
1778841475430013000,5.186012939453125,0.04302606359124184,-0.06059793382883072,-0.16497883200645447
1778841475439993900,5.195993896484375,0.04766475781798363,-0.0530175119638443,-0.06819877028465271
1778841475449974000,5.20597412109375,0.046552374958992004,-0.043390315026044846,0.033220238983631134
1778841475459955000,5.215954833984375,0.04584930092096329,-0.025526627898216248,0.13331328332424164
1778841475469934800,5.225934814453125,0.04671706259250641,-0.005592392757534981,0.21572960913181305
1778841475479915800,5.235915771484375,0.05417151376605034,0.01029709167778492,0.2718040645122528
1778841475489896000,5.24589599609375,0.060554806143045425,0.022119686007499695,0.2987757623195648
1778841475499876900,5.255876953125,0.0620669461786747,0.030224217101931572,0.29219216108322144
1778841475509857000,5.26585693359375,0.06133146584033966,0.031454551964998245,0.25673535466194153
1778841475519837000,5.2758369140625,0.05618890002369881,0.028699511662125587,0.19726431369781494
1778841475529818000,5.285818115234375,0.04845336079597473,0.02066621370613575,0.12507294118404388
1778841475539798000,5.295798095703125,0.0391986109316349,0.013225074857473373,0.044080354273319244
1778841475549779000,5.305779052734375,0.032293424010276794,0.0011165610048919916,-0.030356071889400482
1778841475559758800,5.3157587890625,0.02780546247959137,-0.009380288422107697,-0.0895267203450203
1778841475569740000,5.325739990234375,0.026568157598376274,-0.018323183059692383,-0.12731590867042542
1778841475579720000,5.335719970703125,0.025392046198248863,-0.0235860887914896,-0.14185276627540588
1778841475589700000,5.3457001953125,0.023821845650672913,-0.023538151755928993,-0.13524653017520905
1778841475599681000,5.355680908203125,0.021262936294078827,-0.022927025333046913,-0.11016780883073807
1778841475609661000,5.365660888671875,0.01798165589570999,-0.024033568799495697,-0.07237409055233002
1778841475619642000,5.37564208984375,0.015538451261818409,-0.022293446585536003,-0.03188285976648331
1778841475629622000,5.3856220703125,0.015297701582312584,-0.021170923486351967,0.009145000949501991
1778841475639603000,5.39560302734375,0.016100995242595673,-0.018916189670562744,0.04827374219894409
1778841475649582800,5.405582763671875,0.014269007369875908,-0.01473422721028328,0.07733761519193649
1778841475659564000,5.41556396484375,0.014042614959180355,-0.009477284736931324,0.09637205302715302
1778841475669544000,5.4255439453125,0.012622350826859474,-0.006467646453529596,0.10348748415708542
1778841475679523800,5.43552392578125,0.012167606502771378,-0.0009098153095692396,0.09691958129405975
1778841475689504800,5.4455048828125,0.008164343424141407,0.0018904986791312695,0.08178244531154633
1778841475699485200,5.455485107421875,0.006464263889938593,0.006155712530016899,0.05901374667882919
1778841475709465900,5.4654658203125,0.0032226641196757555,0.01181413047015667,0.03181514889001846
1778841475719446000,5.475446044921875,-0.0008683608029969037,0.015813538804650307,0.007124447263777256
1778841475729427000,5.485427001953125,-0.0027118008583784103,0.018560856580734253,-0.017710594460368156
1778841475739407000,5.495406982421875,-0.004853720776736736,0.01844737119972706,-0.0345098078250885
1778841475749387000,5.505386962890625,-0.005458791274577379,0.01580524817109108,-0.04547244310379028
1778841475759368000,5.515367919921875,-0.005251720082014799,0.016159044578671455,-0.049602210521698
1778841475769347800,5.525347900390625,-0.0070107378996908665,0.014115333557128906,-0.04743306338787079
1778841475779329000,5.5353291015625,-0.005501421634107828,0.0150856738910079,-0.041466254740953445
1778841475789309000,5.545308837890625,-0.007129944860935211,0.016000203788280487,-0.03323841840028763
1778841475799289900,5.555289794921875,-0.008671424351632595,0.01868874579668045,-0.019654424861073494
1778841475809270000,5.56527001953125,-0.011564948596060276,0.021166019141674042,-0.01020765956491232
1778841475819251000,5.5752509765625,-0.01408415473997593,0.020401228219270706,0.0006484396290034056
1778841475829231000,5.585231201171875,-0.01781550981104374,0.018539411947131157,0.0061063216999173164
1778841475839211000,5.5952109375,-0.019989019259810448,0.01719096302986145,0.011108286678791046
1778841475849192000,5.60519189453125,-0.019618572667241096,0.017921200022101402,0.010752221569418907
1778841475859171800,5.615171875,-0.01667514443397522,0.018690412864089012,0.0058301519602537155
1778841475869153000,5.625153076171875,-0.01620376482605934,0.019745023921132088,0.001354709849692881
1778841475879133000,5.6351328125,-0.0157345961779356,0.02101806178689003,-0.008071289397776127
1778841475889113900,5.64511376953125,-0.009846611879765987,0.020983440801501274,-0.01543253194540739
1778841475899093800,5.65509375,-0.0053921714425086975,0.01883110962808132,-0.025613248348236084
1778841475909074200,5.66507421875,-0.0031481923069804907,0.014871787279844284,-0.034102343022823334
1778841475919055000,5.67505517578125,-0.00005484877328854054,0.010560350492596626,-0.03979617357254028
1778841475929035000,5.685034912109375,0.004262914881110191,0.007824970409274101,-0.045859672129154205
1778841475939016000,5.695015869140625,0.0045143174938857555,0.006401777267456055,-0.047849852591753006
1778841475948996000,5.70499609375,0.0027800246607512236,0.006256983149796724,-0.043619148433208466
1778841475958977000,5.71497705078125,0.002770171035081148,0.004515009466558695,-0.038203343749046326
1778841475968957000,5.72495703125,-0.00047462445218116045,0.0029282981995493174,-0.030291888862848282
1778841475978936800,5.734936767578125,-0.0002884694840759039,0.0013668867759406567,-0.02155991643667221
1778841475988918800,5.744918701171875,0.0002514155930839479,-0.0001669208286330104,-0.01369134709239006
1778841475998898700,5.754898681640625,0.0019023092463612556,-0.0025163614191114902,-0.007369535975158215
1778841476008879900,5.7648798828125,0.003960586152970791,-0.004427666775882244,-0.004260302521288395
1778841476018859800,5.77485986328125,0.005359278060495853,-0.005524355918169022,-0.002380110789090395
1778841476028840700,5.7848408203125,0.005452711600810289,-0.0036725199315696955,-0.0042067524045705795
1778841476038820900,5.79482080078125,0.007825587876141071,-0.0017593050142750144,-0.006380690727382898
1778841476048800800,5.80480078125,0.007001383230090141,-0.001234536524862051,-0.01172620803117752
1778841476058782000,5.814781982421875,0.00658646272495389,-0.0021871491335332394,-0.01713082753121853
1778841476068761900,5.824761962890625,0.0063408794812858105,-0.002409766661003232,-0.020077619701623917
1778841476078742800,5.83474267578125,0.007326515391469002,-0.0018427798058837652,-0.023846257477998734
1778841476088722700,5.84472265625,0.005608308594673872,-0.001290799817070365,-0.025997299700975418
1778841476098704000,5.854703857421875,0.003882846562191844,-0.003035170491784811,-0.025314198806881905
1778841476108683800,5.864683837890625,0.005089810583740473,-0.0016681811539456248,-0.02173943631350994
1778841476118663700,5.87466357421875,0.002660208847373724,-0.00025910261319950223,-0.01794496364891529
1778841476128644600,5.88464453125,0.002367769367992878,0.0003265970735810697,-0.0103605380281806
1778841476138625000,5.894625,0.002165369223803282,0.0026917504146695137,-0.0026123367715626955
1778841476148605700,5.904605712890625,0.002085207961499691,0.0024113196413964033,0.006422170903533697
1778841476158585900,5.9145859375,0.004951202776283026,0.0024097785353660583,0.01587851345539093
1778841476168566800,5.92456689453125,0.005938703194260597,0.0005458322702907026,0.02545098215341568
1778841476178547000,5.934546875,0.006324269808828831,0.000041463528759777546,0.034489743411540985
1778841476188526800,5.94452685546875,0.008956005796790123,0.00016024051001295447,0.03986267000436783
1778841476198507800,5.9545078125,0.009704186581075191,-0.001238242257386446,0.043777529150247574
1778841476208487700,5.96448779296875,0.009510308504104614,-0.0020968453027307987,0.04198548570275307
1778841476218468900,5.97446875,0.011889738962054253,-0.001506572705693543,0.036565154790878296
1778841476228448800,5.98444873046875,0.009540298022329807,0.000992004992440343,0.03166094422340393
1778841476238429700,5.9944296875,0.008343207649886608,0.003542248159646988,0.019914807751774788
1778841476248409900,6.004409912109375,0.007096581626683474,0.005349735729396343,0.011423051357269287
1778841476258389800,6.0143896484375,0.006901189219206572,0.006088391412049532,0.0027560563758015633
1778841476268371000,6.024370849609375,0.005655362270772457,0.004026305861771107,-0.004699995741248131
1778841476278350800,6.034350830078125,0.004745100159198046,0.0038275744300335646,-0.009831652045249939
1778841476288331800,6.044331787109375,0.0045179324224591255,0.0022160958033055067,-0.010025795549154282
1778841476298311700,6.054311767578125,0.004106760025024414,0.0010581421665847301,-0.0055383676663041115
1778841476308292900,6.06429296875,0.004966162145137787,0.0008006145944818854,0.0010606790892779827
1778841476318272800,6.074272705078125,0.002755609108135104,0.0002702997298911214,0.008497301489114761
1778841476328252700,6.084252685546875,0.0029604060109704733,-0.000563535955734551,0.017108365893363953
1778841476338233600,6.094233642578125,0.003618544666096568,-0.0007844650535844266,0.02325465902686119
1778841476348214000,6.104214111328125,0.0035072246100753546,-0.0015495911939069629,0.027851009741425514
1778841476358195000,6.11419482421875,0.0031741675920784473,0.0003014557878486812,0.02841772884130478
1778841476368174800,6.1241748046875,0.0050848741084337234,0.001126412651501596,0.02821747213602066
1778841476378155800,6.13415576171875,0.004336525686085224,0.0028255092911422253,0.023196347057819366
1778841476388136000,6.144135986328125,0.00536690279841423,0.00540957460179925,0.0204602163285017
1778841476398115800,6.15411572265625,0.005986970849335194,0.006901372689753771,0.014638807624578476
1778841476408096800,6.1640966796875,0.0054444847628474236,0.004770044703036547,0.011571112088859081
1778841476418076700,6.17407666015625,0.005609200801700354,0.0037227028515189886,0.011652061715722084
1778841476428057900,6.184057861328125,0.00810191873461008,0.0019487710669636726,0.010529538616538048
1778841476438037800,6.194037841796875,0.008832882158458233,0.0010910117998719215,0.01335781067609787
1778841476448018000,6.204017822265625,0.006742833182215691,0.000735479814466089,0.013861946761608124
1778841476457998800,6.213998779296875,0.004890365991741419,0.0012769377790391445,0.01712566241621971
1778841476467978800,6.223978759765625,0.004469586536288261,0.002462577074766159,0.017579998821020126
1778841476477960000,6.2339599609375,0.004767746664583683,0.0030948794446885586,0.014571948908269405
1778841476487939800,6.24393994140625,0.0041174027137458324,0.0031593278981745243,0.010017677210271358
1778841476497920800,6.253920654296875,0.004272988066077232,0.004159044474363327,0.006875418126583099
1778841476507900700,6.263900634765625,0.003043437609449029,0.0045194076374173164,0.005082591436803341
1778841476517880800,6.273880859375,0.0015078589785844088,0.0035071398597210646,0.0022580428048968315
1778841476527861800,6.28386181640625,0.0007361971074715257,0.0049793655052781105,0.0013496165629476309
1778841476537842000,6.293842041015625,-0.0005634254775941372,0.004699999932199717,0.0016625379212200642
1778841476547822600,6.303822509765625,-0.0020534079521894455,0.004596902057528496,0.003019156400114298
1778841476557803000,6.313802978515625,-0.0026536844670772552,0.005974289029836655,0.004135021008551121
1778841476567783000,6.323782958984375,-0.003901461372151971,0.006556827109307051,0.0034351458307355642
1778841476577763800,6.333763916015625,-0.004183223936706781,0.008814655244350433,0.0037632472813129425
1778841476587743700,6.34374365234375,-0.006012777332216501,0.010955547913908958,0.00030247285030782223
1778841476597725000,6.353724853515625,-0.006229558493942022,0.011471135541796684,-0.0030405931174755096
1778841476607704800,6.363704833984375,-0.007884986698627472,0.011682650074362755,-0.0050640529952943325
1778841476617685800,6.373685791015625,-0.01226508803665638,0.01318653766065836,-0.008684886619448662
1778841476627665700,6.383665771484375,-0.014688224531710148,0.012228178791701794,-0.012000005692243576
1778841476637645800,6.393645751953125,-0.015496493317186832,0.011856667697429657,-0.015902070328593254
1778841476647626800,6.403626708984375,-0.018135791644454002,0.01114092580974102,-0.01924193650484085
1778841476657607000,6.41360693359375,-0.01962662860751152,0.011607512831687927,-0.023909658193588257
1778841476667587800,6.423587890625,-0.020990507677197456,0.012743928469717503,-0.026251915842294693
1778841476677567700,6.433567626953125,-0.021115677431225777,0.014515463262796402,-0.025462821125984192
1778841476687547600,6.443547607421875,-0.02152237854897976,0.01419404149055481,-0.021278465166687965
1778841476697528800,6.45352880859375,-0.020702391862869263,0.0162353552877903,-0.02076500654220581
1778841476707508700,6.4635087890625,-0.020340735092759132,0.015321890823543072,-0.017137249931693077
1778841476717489700,6.47348974609375,-0.01828903518617153,0.014631332829594612,-0.012316394597291946
1778841476727469600,6.483469482421875,-0.015312153846025467,0.013243293389678001,-0.00818529911339283
1778841476737450800,6.49345068359375,-0.013029378838837147,0.009093927219510078,-0.004992165602743626
1778841476747431000,6.503430908203125,-0.008939828723669052,0.006014247424900532,-0.002614761935546994
1778841476757410800,6.513410888671875,-0.006613011937588453,0.002035957295447588,0.000836952356621623
1778841476767391700,6.523391845703125,-0.003727743634954095,-0.0016903376672416925,0.00786556676030159
1778841476777372000,6.533371826171875,0.0025648174341768026,-0.006766828708350658,0.013248893432319164
1778841476787352800,6.543352783203125,0.002791985170915723,-0.009537847712635994,0.020182166248559952
1778841476797332700,6.553332763671875,0.00463496008887887,-0.01488956343382597,0.02648666501045227
1778841476807312600,6.563312744140625,0.006977742537856102,-0.016760699450969696,0.033183448016643524
1778841476817293800,6.5732939453125,0.007470161188393831,-0.016740459948778152,0.03151471167802811
1778841476827273700,6.583273681640625,0.008058719336986542,-0.012535595335066319,0.027469903230667114
1778841476837254700,6.593254638671875,0.009481485933065414,-0.009636328555643559,0.017050815746188164
1778841476847234800,6.60323486328125,0.008359761908650398,-0.002759247785434127,0.003257238771766424
1778841476857214700,6.613214599609375,0.008204413577914238,0.0014166939072310925,-0.012638367712497711
1778841476867196000,6.62319580078125,0.004091160837560892,0.00639494089409709,-0.02815287746489048
1778841476877175800,6.63317578125,0.0023601187858730555,0.012366753071546555,-0.038254257291555405
1778841476887156700,6.64315673828125,0.0002442373370286077,0.012623748742043972,-0.04359442740678787
1778841476897136600,6.65313671875,-0.0017452496103942394,0.010595334693789482,-0.040901701897382736
1778841476907117800,6.663117919921875,-0.0017929200548678637,0.00685439258813858,-0.03630189225077629
1778841476917097700,6.67309765625,0.000252927333349362,0.0017014907207340002,-0.024702750146389008
1778841476927078000,6.683077880859375,0.0003754327481146902,-0.0013448991812765598,-0.012899886816740036
1778841476937058600,6.69305859375,0.000304691115161404,-0.003263339400291443,-0.0025021182373166084
1778841476947039000,6.7030390625,-0.0014383477391675115,-0.0024100623559206724,0.00645409245043993
1778841476957020000,6.71302001953125,-0.003580984892323613,0.0005898496019653976,0.010169468820095062
1778841476966999800,6.722999755859375,-0.004372476600110531,0.0031685885041952133,0.008375563658773899
1778841476976979700,6.732979736328125,-0.004746155347675085,0.00783734954893589,-0.00005388539284467697
1778841476986960100,6.742960205078125,-0.00013968581333756447,0.011549529619514942,-0.013831748627126217
1778841476996940000,6.75293994140625,-0.0007115016924217343,0.013174129649996758,-0.030571576207876205
1778841477006921200,6.762921142578125,-0.00012933464313391596,0.015330757945775986,-0.04570632055401802
1778841477016901400,6.7729013671875,-0.0020044618286192417,0.01583627425134182,-0.05656534805893898
1778841477026881300,6.78288134765625,-0.0029421609360724688,0.014081250876188278,-0.06149618700146675
1778841477036862200,6.7928623046875,-0.005986202508211136,0.013985460624098778,-0.05997738242149353
1778841477046842000,6.802842041015625,-0.009852847084403038,0.011661319993436337,-0.04942993447184563
1778841477056823300,6.8128232421875,-0.01110872533172369,0.010564802214503288,-0.033913031220436096
1778841477066803200,6.82280322265625,-0.011722850613296032,0.008342660032212734,-0.017176395282149315
1778841477076783000,6.832783203125,-0.008845094591379166,0.005408689845353365,0.0010406873188912868
1778841477086764000,6.842763916015625,-0.005912476684898138,0.004888874012976885,0.01712697558104992
1778841477096744000,6.852743896484375,-0.002196035347878933,0.0005063762655481696,0.029785512015223503
1778841477106725000,6.86272509765625,-0.000931653892621398,-0.002700763288885355,0.036133162677288055
1778841477116705300,6.872705322265625,-0.000732183107174933,-0.0054709832184016705,0.034207962453365326
1778841477126685200,6.882685302734375,-0.0015764546114951372,-0.005254918243736029,0.0246200542896986
1778841477136666000,6.892666015625,-0.0037115111481398344,-0.0010135681368410587,0.005579251796007156
1778841477146646300,6.902646240234375,-0.002834004582837224,0.0028855169657617807,-0.01680116541683674
1778841477156627200,6.912627197265625,-0.0068101040087640285,0.009109591133892536,-0.03793095052242279
1778841477166607000,6.922607177734375,-0.007402533665299416,0.017000142484903336,-0.05825992301106453
1778841477176588000,6.932588134765625,-0.008112798444926739,0.02221061661839485,-0.07077838480472565
1778841477186568200,6.942568115234375,-0.009172084741294384,0.026575254276394844,-0.07854387164115906
1778841477196548000,6.952548095703125,-0.009995800442993641,0.02781948260962963,-0.07882589846849442
1778841477206529000,6.962529052734375,-0.010536753572523594,0.026491882279515266,-0.07387296855449677
1778841477216509200,6.97250927734375,-0.015032968483865261,0.024509157985448837,-0.06034331023693085
1778841477226490400,6.982490478515625,-0.013846616260707378,0.020773116499185562,-0.046658389270305634
1778841477236470300,6.99247021484375,-0.018672529608011246,0.015089661814272404,-0.031006192788481712
1778841477246450200,7.0024501953125,-0.017538754269480705,0.014581171795725822,-0.014715108089148998
1778841477256431000,7.01243115234375,-0.01925782486796379,0.01291536446660757,-0.0010634786449372768
1778841477266411000,7.022410888671875,-0.017016470432281494,0.011233288794755936,0.005719328764826059
1778841477276392200,7.03239208984375,-0.017581326887011528,0.01099014189094305,0.008923644199967384
1778841477286372000,7.0423720703125,-0.016347534954547882,0.01116998866200447,0.005434908904135227
1778841477296352300,7.052352294921875,-0.014330723322927952,0.012101296335458755,-0.0005188537761569023
1778841477306333200,7.062333251953125,-0.011036126874387264,0.014293876476585865,-0.015379292890429497
1778841477316313300,7.072313232421875,-0.01051358412951231,0.01477610319852829,-0.028014134615659714
1778841477326294300,7.082294189453125,-0.006742547266185284,0.014095133170485497,-0.04515903443098068
1778841477336274200,7.092274169921875,-0.005800494458526373,0.013707321137189865,-0.060743581503629684
1778841477346254000,7.102254150390625,-0.005098218563944101,0.013327287510037422,-0.07202845811843872
1778841477356235300,7.1122353515625,-0.0058416868560016155,0.012143939733505249,-0.0754287838935852
1778841477366215200,7.122215087890625,-0.005406526383012533,0.011844866909086704,-0.07333128154277802
1778841477376196000,7.132196044921875,-0.005198589060455561,0.01343960128724575,-0.06538920104503632
1778841477386176000,7.142176025390625,-0.006195092108100653,0.01196865551173687,-0.05448010191321373
1778841477396156200,7.15215625,-0.005943689960986376,0.009345708414912224,-0.04142555221915245
1778841477406137300,7.162137451171875,-0.006329315714538097,0.00905382540076971,-0.028448503464460373
1778841477416117200,7.1721171875,-0.0054146950133144855,0.004147428087890148,-0.018596133217215538
1778841477426098200,7.18209814453125,-0.006108448375016451,0.003664863295853138,-0.011583230458199978
1778841477436078000,7.192078125,-0.005574185401201248,0.0007411731639876962,-0.00725160539150238
1778841477446058200,7.202058349609375,-0.007315892726182938,-0.0005667052464559674,-0.0033141218591481447
1778841477456039200,7.2120390625,-0.006222008261829615,-0.0005415328778326511,-0.004110141657292843
1778841477466019000,7.22201904296875,-0.00717302318662405,0.00009842478903010488,-0.00826973281800747
1778841477476000000,7.232,-0.005995194893330336,0.0031571704894304276,-0.013351572677493095
1778841477485980200,7.241980224609375,-0.005093715153634548,0.00709811644628644,-0.01758919470012188
1778841477495960300,7.251960205078125,-0.004556537140160799,0.008482150733470917,-0.021098442375659943
1778841477505941200,7.261941162109375,-0.0008544771699234843,0.00642379280179739,-0.021662233397364616
1778841477515921200,7.271921142578125,-0.00004048582923132926,0.000009757175575941801,-0.019637156277894974
1778841477525902300,7.28190234375,0.0023819254711270332,-0.0024097247514873743,-0.014194986782968044
1778841477535882200,7.29188232421875,0.005166508257389069,-0.005706973373889923,-0.012674855068325996
1778841477545863200,7.30186328125,0.004641066305339336,-0.006928565446287394,-0.006487799342721701
1778841477555843000,7.311843017578125,0.0031893725972622633,-0.007374427746981382,-0.0028778945561498404
1778841477565823000,7.321822998046875,0.003775268094614148,-0.009880461730062962,0.0038311409298330545
1778841477575804200,7.33180419921875,0.0001263034500880167,-0.010451450943946838,0.006381134502589703
1778841477585784300,7.341784423828125,-0.0017216639826074243,-0.012562539428472519,0.012405204586684704
1778841477595765000,7.351764892578125,-0.002132578520104289,-0.01380096934735775,0.013542098924517632
1778841477605745200,7.3617451171875,-0.0004875440208707005,-0.016285430639982224,0.013411072082817554
1778841477615725300,7.371725341796875,0.0018706482369452715,-0.011052831076085567,0.006676733493804932
1778841477625706200,7.381706298828125,0.0031833203975111246,-0.010091962292790413,-0.0023631006479263306
1778841477635686100,7.39168603515625,0.0048586600460112095,-0.006988280452787876,-0.011779775843024254
1778841477645667000,7.4016669921875,0.004291140474379063,-0.003301932942122221,-0.020679794251918793
1778841477655647200,7.411647216796875,0.004880236927419901,-0.0009372628992423415,-0.027302533388137817
1778841477665627100,7.421627197265625,0.00341940694488585,-0.001298016170039773,-0.02988526225090027
1778841477675608000,7.431608154296875,0.0028193967882543802,-0.0028913854621350765,-0.029489781707525253
1778841477685588200,7.441588134765625,0.0025549358688294888,-0.005412698723375797,-0.02596484124660492
1778841477695569200,7.451569091796875,0.0015376083320006728,-0.0058534517884254456,-0.021482475101947784
1778841477705549300,7.46154931640625,0.002686089836061001,-0.005296396557241678,-0.014898334629833698
1778841477715529200,7.471529296875,0.003040290204808116,-0.005570702254772186,-0.005973282270133495
1778841477725510100,7.48151025390625,0.005203383509069681,-0.005736928433179855,0.00036158389411866665
1778841477735490000,7.491489990234375,0.007232179865241051,-0.008299155160784721,0.0077398717403411865
1778841477745471200,7.50147119140625,0.008740965276956558,-0.012924384325742722,0.012157254852354527
1778841477755451100,7.511451171875,0.011655262671411037,-0.015180880203843117,0.01617276854813099
1778841477765431000,7.52143115234375,0.01392922643572092,-0.01695128157734871,0.017806611955165863
1778841477775412000,7.531411865234375,0.015358811244368553,-0.019378487020730972,0.01873978227376938
1778841477785392400,7.541392333984375,0.01614670269191265,-0.019061649218201637,0.0190721545368433
1778841477795373300,7.551373291015625,0.017065227031707764,-0.017598507925868034,0.01659914292395115
1778841477805353200,7.561353271484375,0.0200178362429142,-0.01901831664144993,0.013490414246916771
1778841477815333000,7.5713330078125,0.018538981676101685,-0.01619190350174904,0.007751036435365677
1778841477825314300,7.581314208984375,0.02044205740094185,-0.01767309382557869,0.001955471932888031
1778841477835294200,7.591294189453125,0.020826084539294243,-0.01749332994222641,-0.006155450828373432
1778841477845275100,7.601275146484375,0.020429560914635658,-0.014914019033312798,-0.010819967836141586
1778841477855255000,7.611255126953125,0.01862500235438347,-0.012431420385837555,-0.01357820350676775
1778841477865235200,7.621235107421875,0.01447437983006239,-0.009279198944568634,-0.009728334844112396
1778841477875216100,7.631216064453125,0.014542822726070881,-0.005618417635560036,-0.00468191085383296
1778841477885196300,7.6411962890625,0.011114034801721573,-0.0012290668673813343,0.0010470743291079998
1778841477895177200,7.65117724609375,0.009390969760715961,0.0007137091015465558,0.008329221978783607
1778841477905157000,7.6611572265625,0.008230630308389664,0.0036799379158765078,0.013255537487566471
1778841477915138300,7.67113818359375,0.004884754307568073,0.00506715988740325,0.018588535487651825
1778841477925118200,7.6811181640625,0.0045699686743319035,0.008280263282358646,0.021364614367485046
1778841477935098000,7.69109814453125,0.0007681858260184526,0.010202769190073013,0.020141132175922394
1778841477945079000,7.7010791015625,-0.002891263924539089,0.009601427242159843,0.019358694553375244
1778841477955059200,7.71105908203125,-0.005595257505774498,0.01149988267570734,0.015176478773355484
1778841477965040000,7.7210400390625,-0.005904184188693762,0.012309483252465725,0.009236830286681652
1778841477975020300,7.731020263671875,-0.008060370571911335,0.012976395897567272,0.0031826600898057222
1778841477985000200,7.741000244140625,-0.00769738107919693,0.013418746180832386,-0.0036621964536607265
1778841477994980900,7.75098095703125,-0.005856852978467941,0.012498613446950912,-0.008625262416899204
1778841478004960800,7.760960693359375,-0.006161518860608339,0.01275374460965395,-0.011325441300868988
1778841478014941700,7.770941650390625,-0.007555895484983921,0.014360928907990456,-0.012391767464578152
1778841478024921900,7.780921875,-0.006152675952762365,0.016020076349377632,-0.015353201888501644
1778841478034901800,7.79090185546875,-0.006871902849525213,0.017817122861742973,-0.01817401498556137
1778841478044882700,7.800882568359375,-0.005876945797353983,0.01869649812579155,-0.022794334217905998
1778841478054862800,7.81086279296875,-0.009483417496085167,0.01620325818657875,-0.02677283249795437
1778841478064843800,7.82084375,-0.00814597774296999,0.01512094959616661,-0.027484161779284477
1778841478074824000,7.830823974609375,-0.011569048278033733,0.011425614356994629,-0.02372991107404232
1778841478084803800,7.840803955078125,-0.012201283127069473,0.010714550502598286,-0.019839299842715263
1778841478094784800,7.85078466796875,-0.013707618229091167,0.009148960001766682,-0.015138547867536545
1778841478104764700,7.8607646484375,-0.013617070391774178,0.008919395506381989,-0.011641285382211208
1778841478114745900,7.870745849609375,-0.012696737423539162,0.009334350936114788,-0.012377120554447174
1778841478124725800,7.880725830078125,-0.009541157633066177,0.01073517370969057,-0.015512727200984955
1778841478134705700,7.89070556640625,-0.010233146138489246,0.014319154433906078,-0.02200843021273613
1778841478144686600,7.9006865234375,-0.00965603906661272,0.016423050314188004,-0.033122070133686066
1778841478154667000,7.9106669921875,-0.011504030786454678,0.019459016621112823,-0.04034563899040222
1778841478164648000,7.92064794921875,-0.013273702003061771,0.02022494189441204,-0.050228893756866455
1778841478174627800,7.9306279296875,-0.0122123584151268,0.022748243063688278,-0.05868788808584213
1778841478184607700,7.940607666015625,-0.013094929978251457,0.022963691502809525,-0.06447494029998779
1778841478194589000,7.9505888671875,-0.013178277760744095,0.023631129413843155,-0.0710020661354065
1778841478204568800,7.96056884765625,-0.015938645228743553,0.022923527285456657,-0.07102843374013901
1778841478214549800,7.9705498046875,-0.018957050517201424,0.019940616562962532,-0.06838180869817734
1778841478224529700,7.98052978515625,-0.01930379308760166,0.017866812646389008,-0.06278464198112488
1778841478234510800,7.9905107421875,-0.022384820505976677,0.016515053808689117,-0.052110422402620316
1778841478244490800,8.00049072265625,-0.02039865404367447,0.01137564703822136,-0.03722149506211281
1778841478254471000,8.010470947265626,-0.01732936128973961,0.009846460074186325,-0.027447694912552834
1778841478264451800,8.020451904296875,-0.009799341671168804,0.00630752881988883,-0.019163917750120163
1778841478274431700,8.030431640625,-0.006334836129099131,0.0021668460685759783,-0.01066497340798378
1778841478284413000,8.040412841796876,-0.0005209794617258012,-0.001945285126566887,-0.008171995170414448
1778841478294392800,8.050392822265625,0.003996008075773716,-0.005617784336209297,-0.006929896771907806
1778841478304372700,8.060372802734374,0.00667570298537612,-0.008989308029413223,-0.008075843565165997
1778841478314353700,8.070353759765625,0.008204091340303421,-0.00804148893803358,-0.007828435860574245
1778841478324333800,8.080333740234375,0.008200771175324917,-0.007970254868268967,-0.010456709191203117
1778841478334314800,8.090314697265624,0.008603974245488644,-0.007421910297125578,-0.013090308755636215
1778841478344295000,8.100294921875,0.008846254087984562,-0.009692693129181862,-0.01714842952787876
1778841478354274800,8.11027490234375,0.01111633237451315,-0.010394702665507793,-0.016583306714892387
1778841478364256000,8.120256103515626,0.010004747658967972,-0.009780854918062687,-0.015072492882609367
1778841478374236000,8.13023583984375,0.009283296763896942,-0.00958830863237381,-0.008822586387395859
1778841478384216800,8.140216796875,0.00835450179874897,-0.011027706786990166,-0.003212392097339034
1778841478394196700,8.15019677734375,0.008824549615383148,-0.012956367805600166,0.002550688572227955
1778841478404176600,8.1601767578125,0.008893703110516071,-0.015312095172703266,0.007790726609528065
1778841478414157800,8.17015771484375,0.011283623985946178,-0.01698509231209755,0.009322044439613819
1778841478424137700,8.1801376953125,0.013642705976963043,-0.017224278301000595,0.011601980775594711
1778841478434118700,8.19011865234375,0.014765228144824505,-0.018528694286942482,0.012701333500444889
1778841478444098800,8.200098876953126,0.014474596828222275,-0.014874150976538658,0.011967645958065987
1778841478454079000,8.210078857421875,0.017004333436489105,-0.011749996803700924,0.01049012504518032
1778841478464060000,8.220059814453125,0.015152049250900745,-0.010000532492995262,0.00896625965833664
1778841478474039800,8.230039794921876,0.014288919046521187,-0.007610878441482782,0.006161151919513941
1778841478484020700,8.240020751953125,0.015350188128650188,-0.003917606547474861,0.003008501837030053
1778841478494001000,8.2500009765625,0.016813166439533234,-0.004672462586313486,0.002275597769767046
1778841478503981800,8.25998193359375,0.012725748121738434,-0.0031784293241798878,0.002233519684523344
1778841478513961700,8.269961669921875,0.011163928546011448,-0.0026152983773499727,0.005207205191254616
1778841478523941600,8.279941650390626,0.007433105725795031,0.0005432107136584818,0.010549239814281464
1778841478533922800,8.2899228515625,0.006491765379905701,0.0015324701089411974,0.01664973795413971
1778841478543903000,8.299903076171875,0.0034118196927011013,0.002841946203261614,0.02838762104511261
1778841478553884000,8.3098837890625,0.0027008610777556896,0.0013621775433421135,0.04019021615386009
1778841478563863800,8.31986376953125,0.003805007552728057,0.0006961210747249424,0.051514510065317154
1778841478573843700,8.32984375,0.006886309944093227,-0.0015906975604593754,0.06065662205219269
1778841478583825000,8.339824951171876,0.007258353289216757,-0.007792134769260883,0.06479011476039886
1778841478593804800,8.3498046875,0.012448903173208237,-0.011882300488650799,0.06476693600416183
1778841478603785700,8.35978564453125,0.015010864473879337,-0.01709543727338314,0.06134158372879028
1778841478613765600,8.369765625,0.015191178768873215,-0.021190591156482697,0.054198719561100006
1778841478623745800,8.379745849609375,0.015172271057963371,-0.02253122627735138,0.04802018404006958
1778841478633726700,8.389726806640626,0.014520700089633465,-0.020973393693566322,0.04017157852649689
1778841478643707000,8.399706787109375,0.011459662578999996,-0.015241472981870174,0.030474744737148285
1778841478653687800,8.409687744140625,0.0070559801533818245,-0.0076721468940377235,0.01874643936753273
1778841478663668000,8.41966796875,0.0059544965624809265,-0.0008866785210557282,0.007661030627787113
1778841478673647900,8.42964794921875,0.0014143617590889335,0.006423736456781626,-0.004845162853598595
1778841478683628800,8.43962890625,0.0007046293467283249,0.011609177105128765,-0.014195522293448448
1778841478693608700,8.449608642578125,-0.0014668656513094902,0.015266790054738522,-0.021291501820087433
1778841478703590000,8.45958984375,-0.001835180795751512,0.015681710094213486,-0.02078683115541935
1778841478713569800,8.46956982421875,-0.003472309559583664,0.012828661128878593,-0.01661740243434906
1778841478723550000,8.479550048828125,-0.003309057792648673,0.009728476405143738,-0.006483010016381741
1778841478733531000,8.48953076171875,-0.0041369786486029625,0.004913712851703167,0.004378164187073708
1778841478743510800,8.4995107421875,0.00020104410941712558,0.0027032895013689995,0.016764260828495026
1778841478753492000,8.509491943359375,0.00006861105794087052,-0.0005593043752014637,0.02448076382279396
1778841478763472000,8.519471923828124,0.0021037987899035215,-0.001151857664808631,0.028102129697799683
1778841478773451800,8.52945166015625,0.0021891072392463684,-0.000921066792216152,0.030758097767829895
1778841478783432700,8.5394326171875,0.002535552717745304,0.0014225866179913282,0.03268623352050781
1778841478793412600,8.54941259765625,0.0005307248793542385,0.0034362024161964655,0.03135305643081665
1778841478803393800,8.559393798828125,0.0016130335861817002,0.005357672926038504,0.02941480651497841
1778841478813373700,8.569373779296875,0.001711708609946072,0.0061897230334579945,0.03024410456418991
1778841478823354600,8.579354736328124,0.0033030386548489332,0.004334509372711182,0.03102787956595421
1778841478833334800,8.589334716796875,0.005219981539994478,-0.00018247816478833556,0.030599109828472137
1778841478843315000,8.59931494140625,0.009184024296700954,-0.0012189358239993453,0.03314828500151634
1778841478853295900,8.6092958984375,0.010189900174736977,-0.004622455686330795,0.03747085854411125
1778841478863275800,8.61927587890625,0.010334739461541176,-0.009003332816064358,0.04424380883574486
1778841478873256700,8.629256591796874,0.008295557461678982,-0.012989552691578865,0.05348764359951019
1778841478883236900,8.63923681640625,0.008472271263599396,-0.0138711491599679,0.05866403877735138
1778841478893216800,8.649216796875,0.007854417897760868,-0.016531912609934807,0.06263827532529831
1778841478903197700,8.65919775390625,0.010810650885105133,-0.019777901470661163,0.06360766291618347
1778841478913177900,8.669177734375,0.010054579004645348,-0.01999601349234581,0.05683710798621178
1778841478923158800,8.67915869140625,0.011352108791470528,-0.02270313911139965,0.050391994416713715
1778841478933139000,8.689138916015626,0.012332950718700886,-0.022861065343022346,0.041797708719968796
1778841478943118800,8.699118896484375,0.014016935601830482,-0.02570221945643425,0.03140125423669815
1778841478953099800,8.709099853515625,0.014321334660053253,-0.022903235629200935,0.022166743874549866
1778841478963079700,8.71907958984375,0.01581968367099762,-0.02483006753027439,0.015564506873488426
1778841478973060900,8.729060791015625,0.01678641326725483,-0.020353026688098907,0.008026694878935814
1778841478983040800,8.739040771484374,0.014589708298444748,-0.01679816097021103,0.0026553559582680464
1778841478993021000,8.74902099609375,0.014703691937029362,-0.01431343238800764,-0.001605967991054058
1778841479003002000,8.759002197265625,0.012686971575021744,-0.009013531729578972,-0.004946631379425526
1778841479012982000,8.76898193359375,0.011142870411276817,-0.007911249063909054,-0.008259071037173271
1778841479022963000,8.778962890625,0.009383889846503735,-0.005513095296919346,-0.011511320248246193
1778841479032943000,8.788943115234375,0.007862691767513752,-0.0033985450863838196,-0.011459654197096825
1778841479042923000,8.798923095703126,0.004765504505485296,-0.0005274851573631167,-0.011531565338373184
1778841479052904200,8.808904296875,0.005869118496775627,-0.002399154705926776,-0.007755468599498272
1778841479062884000,8.818884033203124,0.008237733505666256,-0.004536075051873922,-0.0034555289894342422
1778841479072865000,8.828864990234376,0.007674227003008127,-0.0015344375278800726,0.0014537435490638018
1778841479082845000,8.838844970703125,0.007961582392454147,-0.0013352332171052694,0.008934030309319496
1778841479092826000,8.848826171875,0.008057080209255219,-0.0020379743073135614,0.017742160707712173
1778841479102806000,8.858805908203125,0.007988370954990387,-0.0024270620197057724,0.025823790580034256
1778841479112786200,8.8687861328125,0.007096264977008104,-0.002272415440529585,0.036145132035017014
1778841479122766800,8.878766845703124,0.00681423582136631,-0.000019647472072392702,0.04696022719144821
1778841479132747000,8.8887470703125,0.00462009571492672,0.0016696227248758078,0.055379293859004974
1778841479142728200,8.898728271484375,0.0052115838043391705,0.0016914606094360352,0.06354720890522003
1778841479152708000,8.9087080078125,0.00339515320956707,0.002606987953186035,0.067862868309021
1778841479162688000,8.91868798828125,0.001964236842468381,0.00005354930181056261,0.07195214927196503
1778841479172669000,8.9286689453125,0.002692573703825474,0.0011345488019287586,0.07108129560947418
1778841479182649000,8.938649169921876,0.0025495621375739574,0.0025026146322488785,0.07020324468612671
1778841479192630000,8.948630126953125,0.004849952179938555,0.001706412062048912,0.06628814339637756
1778841479202610000,8.95860986328125,0.006163157057017088,-0.00013596279313787818,0.05592205747961998
1778841479212590000,8.968590087890625,0.005583076272159815,-0.0028926273807883263,0.0462435819208622
1778841479222571000,8.978571044921875,0.004117805045098066,-0.004269481636583805,0.03567402809858322
1778841479232551200,8.98855126953125,0.00535938935354352,-0.007961167022585869,0.021915873512625694
1778841479242532000,8.998531982421875,0.00412741070613265,-0.009018708020448685,0.008816849440336227
1778841479252512000,9.008511962890625,0.004499488044530153,-0.010957560501992702,-0.0020821436773985624
1778841479262492000,9.018491943359376,0.006008435040712357,-0.008460048586130142,-0.010987753979861736
1778841479272473000,9.02847314453125,0.0067499675787985325,-0.008652395568788052,-0.020278185606002808
1778841479282453000,9.038452880859374,0.00822216272354126,-0.008118698373436928,-0.02653847634792328
1778841479292434000,9.048433837890625,0.01079346053302288,-0.006652954965829849,-0.02981204353272915
1778841479302413800,9.058413818359375,0.013257683254778385,-0.00804232619702816,-0.028053557500243187
1778841479312394200,9.068394287109374,0.013895279727876186,-0.008505471982061863,-0.025826087221503258
1778841479322375200,9.078375244140625,0.013250262476503849,-0.006848187185823917,-0.020562084391713142
1778841479332355000,9.08835498046875,0.012444514781236649,-0.010567684657871723,-0.0176595039665699
1778841479342336000,9.0983359375,0.008591187186539173,-0.010081924498081207,-0.012581123039126396
1778841479352316200,9.108316162109375,0.005376058164983988,-0.012634946964681149,-0.006773568689823151
1778841479362296000,9.118296142578124,0.003973371349275112,-0.011311355978250504,-0.007036956027150154
1778841479372277000,9.128277099609376,0.0022197202779352665,-0.005729077383875847,-0.0008626705966889858
1778841479382257000,9.1382568359375,0.00026096522924490273,-0.000731389329303056,0.0013530795695260167
1778841479392238000,9.148238037109374,-0.002053592586889863,0.006673214491456747,0.009595819748938084
1778841479402218000,9.158218017578125,-0.0035737575963139534,0.011258450336754322,0.015655849128961563
1778841479412198100,9.1681982421875,-0.0018445668974891305,0.01383665669709444,0.02076112851500511
1778841479422179000,9.178178955078126,0.0010574611369520426,0.012197492644190788,0.023448791354894638
1778841479432159000,9.188158935546875,0.00023081593099050224,0.011212656274437904,0.021392032504081726
1778841479442140200,9.19814013671875,0.0012464961037039757,0.009797001257538795,0.017080912366509438
1778841479452120000,9.2081201171875,0.0019951106514781713,0.007249954156577587,0.013589241541922092
1778841479462100000,9.218099853515625,0.002644048538058996,0.003615050809457898,0.00742295291274786
1778841479472081000,9.228080810546874,0.001954023726284504,0.0029788215178996325,-0.00021499325521290302
1778841479482061000,9.23806103515625,0.002121040830388665,0.0023420373909175396,-0.003305588848888874
1778841479492042000,9.2480419921875,0.002114383038133383,0.0010615894570946693,-0.005039839539676905
1778841479502022100,9.258022216796874,0.0011621604207903147,-0.00005040789255872369,-0.006819896399974823
1778841479512003000,9.268003173828125,0.002591479104012251,0.001183700980618596,-0.008386367931962013
1778841479521983200,9.277983154296875,0.0026145565789192915,0.00024153065169230103,-0.0076404232531785965
1778841479531963100,9.287963134765626,-0.000621450541075319,0.00334757543168962,-0.007176234386861324
1778841479541944000,9.297944091796875,-0.0007859907927922904,0.0033622493501752615,-0.007392203900963068
1778841479551924000,9.307924072265624,-0.00236338097602129,0.005281323567032814,-0.006900584790855646
1778841479561905200,9.3179052734375,-0.0033188057132065296,0.006666789297014475,-0.006859849207103252
1778841479571885000,9.327885009765625,-0.004442127421498299,0.006114183459430933,-0.005467281676828861
1778841479581865000,9.337864990234374,-0.005289190914481878,0.005689037498086691,-0.003935434855520725
1778841479591846000,9.347845947265625,-0.006471102125942707,0.006033650599420071,-0.004070723429322243
1778841479601826000,9.357825927734375,-0.004325759597122669,0.0012209515552967787,-0.002866430440917611
1778841479611807200,9.36780712890625,-0.0030583611223846674,0.0000816512037999928,-0.0021255386527627707
1778841479621787100,9.377787109375,-0.0021299521904438734,-0.000008701346814632416,-0.002741802018135786
1778841479631767000,9.38776708984375,-0.0015515136765316129,-0.000014560297131538391,-0.0013345875777304173
1778841479641748000,9.397748046875,-0.0010692152427509427,-0.0001391962869092822,0.00021430687047541142
1778841479651728100,9.40772802734375,0.0004032833385281265,0.002075732685625553,0.0010667876340448856
1778841479661709000,9.417708984375,0.0016435174038633704,0.00398122426122427,0.0020361782517284155
1778841479671689000,9.42768896484375,0.0010700835846364498,0.004351969808340073,0.0034409917425364256
1778841479681669000,9.437669189453125,0.002487151650711894,0.004409760236740112,0.003005032427608967
1778841479691650000,9.447650146484374,0.002966891508549452,0.004312654957175255,0.004975228104740381
1778841479701630200,9.457630126953125,0.001983652589842677,0.0038434064481407404,0.0025743884034454823
1778841479711611100,9.467611083984375,0.0027465771418064833,0.0037958298344165087,0.0003400002606213093
1778841479721591000,9.477591064453126,0.00034174270695075393,0.003748425981029868,0.0002031137701123953
1778841479731571000,9.487571044921875,0.0010759425349533558,0.0012027816846966743,-0.0008722636848688126
1778841479741552000,9.49755224609375,-0.0019685830920934677,0.0016374096740037203,-0.002413435373455286
1778841479751532000,9.507531982421876,-0.0022250956390053034,0.0017581337597221136,-0.0007071418222039938
1778841479761513000,9.517512939453125,-0.0017696951981633902,0.0036780063528567553,-0.000806744210422039
1778841479771492900,9.527492919921874,-0.002869248390197754,0.0014386773109436035,-0.0030230404809117317
1778841479781473300,9.537473388671875,-0.002863389439880848,-0.00012433191295713186,-0.0028866869397461414
1778841479791454000,9.547453857421875,-0.0016511364374309778,0.00020138383843004704,-0.004407086409628391
1778841479801434000,9.55743408203125,-0.00005776708712801337,-0.0008004973642528057,-0.004691778682172298
1778841479811415000,9.5674150390625,-0.0000492272520205006,0.0009127029916271567,-0.005091251339763403
1778841479821395200,9.577395263671875,0.00027061838773079216,0.000648783752694726,-0.004382850602269173
1778841479831375000,9.587375,-0.0006269697332754731,0.0023408555425703526,-0.005157020874321461
1778841479841356000,9.59735595703125,-0.0001872818247647956,0.002164287958294153,-0.003560722107067704
1778841479851336000,9.6073359375,-0.0006762382108718157,0.0012617427855730057,0.00036158179864287376
1778841479861317000,9.617317138671876,0.000572518038097769,0.0001799667370505631,0.003205837681889534
1778841479871297000,9.627297119140625,0.00024620621115900576,0.0007738469867035747,0.0035653505474328995
1778841479881277200,9.637277099609374,-0.00039401769754476845,0.0017413734458386898,0.006396823562681675
1778841479891258000,9.647258056640625,-0.002355719218030572,0.004246669355779886,0.007706840056926012
1778841479901238000,9.657238037109375,-0.0015631624264642596,0.005073580890893936,0.005908939987421036
1778841479911219200,9.66721923828125,-0.001957755070179701,0.003956013359129429,0.0016526728868484497
1778841479921199000,9.67719921875,-0.002453369088470936,0.003603943856433034,-0.00259427004493773
1778841479931179000,9.687178955078124,-0.0012440975988283753,0.002306279493495822,-0.00661031249910593
1778841479941160000,9.697159912109376,-0.0009077403228729963,-0.000142230826895684,-0.009486259892582893
1778841479951140000,9.70714013671875,-0.0008454586495645344,-0.000724425190128386,-0.009096118621528149
1778841479961121000,9.71712109375,0.00049198092892766,-0.00524114677682519,-0.008448970504105091
1778841479971101000,9.727100830078125,0.00012842350406572223,-0.002117719268426299,-0.003439557971432805
1778841479981081000,9.7370810546875,-0.0007410276448354125,-0.000120708835311234,-0.00018730969168245792
1778841479991061800,9.747061767578124,-0.001033975393511355,0.001423658337444067,0.004360836930572987
1778841480001042000,9.7570419921875,-0.0009746935102157295,0.003382529830560088,0.008075681515038013
1778841480011022800,9.76702294921875,-0.0009904061444103718,0.005141015164554119,0.011080526746809483
1778841480021002800,9.777002685546876,-0.0001842850324464962,0.004776971880346537,0.010024049319326878
1778841480030982700,9.786982666015625,-0.00039653899148106575,0.004533292725682259,0.010420859791338444
1778841480040963800,9.7969638671875,-0.00017127061437349766,0.0045516905374825,0.008109766989946365
1778841480050943700,9.80694384765625,0.00004844018258154392,0.0024627072270959616,0.007059416268020868
1778841480060924700,9.816924560546875,0.001327360630966723,0.0012301518581807613,0.0075750090181827545
1778841480070904800,9.82690478515625,0.0010471960995346308,0.0010876727756112814,0.005988829769194126
1778841480080884700,9.836884765625,-0.000013096374459564686,-0.0013386777136474848,0.008298850618302822
1778841480090866000,9.846865966796875,-0.00007221855048555881,-0.002303540939465165,0.009233353659510612
1778841480100845800,9.856845703125,-0.00010923670197371393,-0.002828134223818779,0.011323144659399986
1778841480110826800,9.86682666015625,-0.00042402237886562943,-0.003885941579937935,0.011618489399552345
1778841480120806700,9.876806640625,-0.00030045141465961933,-0.003272398840636015,0.01186961680650711
1778841480130786800,9.886786865234376,0.002610117197036743,-0.0028811804950237274,0.00990873109549284
1778841480140767700,9.896767822265625,0.0025203172117471695,-0.0005553095834329724,0.00654597207903862
1778841480150748000,9.906747802734374,0.0026292402762919664,-0.000940935336984694,0.0022878434974700212
1778841480160728600,9.916728515625,0.0014778831973671913,0.00041647296166047454,-0.000697573646903038
1778841480170709000,9.926708984375,0.00023738268646411598,0.0015419248957186937,-0.0023236998822540045
1778841480180689000,9.93668896484375,-0.0010720936115831137,0.0008476387592963874,-0.0033719202037900686
1778841480190669800,9.946669921875,0.000006026530172675848,0.0010249109473079443,-0.003266994608566165
1778841480200649700,9.956649658203125,-0.0008658752776682377,0.00033247790997847915,-0.0008706816006451845
1778841480210631000,9.966630859375,-0.0010280617279931903,0.000835016428027302,0.002377043478190899
1778841480220610800,9.97661083984375,-0.0018509785877540708,-0.0001061446382664144,0.0022691853810101748
1778841480230590700,9.9865908203125,-0.0011125562014058232,0.0003610680578276515,0.005604265723377466
1778841480240571600,9.996571533203126,-0.0013815354323014617,-0.00011563778389245272,0.008399519138038158
1778841480250551800,10.0065517578125,0.00006631843280047178,-0.0010223275749012828,0.008756117895245552
1778841480260532700,10.01653271484375,0.001260213553905487,-0.00030194257851690054,0.005794949363917112
1778841480270513000,10.026512939453125,-0.0007673397194594145,-0.00006268528522923589,0.0060745845548808575
1778841480280492800,10.036492919921875,0.0009639813215471804,0.0004904532106593251,0.005545946769416332
1778841480290473700,10.0464736328125,-0.00005057654925622046,0.0009233667515218258,0.005584827624261379
1778841480300454000,10.056453857421875,-0.0003091695252805948,0.001153197605162859,0.0028036884032189846
1778841480310433800,10.066433837890624,-0.0005194493569433689,0.00006646139081567526,0.0013631748734042048
1778841480320414700,10.076414794921876,-0.0009346361039206386,0.00042412395123392344,0.0014404065441340208
1778841480330394600,10.08639453125,-0.0013784774346277118,-0.00010676070814952254,0.00012027658522129059
1778841480340375800,10.096375732421874,-0.0017635704716667533,-0.002669254317879677,0.00003825104795396328
1778841480350356000,10.10635595703125,-0.000800703652203083,-0.0016715461388230324,-0.0021274383179843426
1778841480360336000,10.1163359375,-0.003501148894429207,-0.0007130744052119553,-0.0016826903447508812
1778841480370316800,10.12631689453125,-0.0020867118146270514,0.0014781525824218988,-0.0015298235230147839
1778841480380296700,10.136296630859375,-0.0032326700165867805,0.0022539314813911915,-0.0032957657240331173
1778841480390278000,10.14627783203125,-0.00230452511459589,0.0006498875445686281,-0.0026898952201008797
1778841480400257800,10.1562578125,-0.00142408418469131,0.000465330493170768,-0.002548747695982456
1778841480410237700,10.16623779296875,-0.0004068816197104752,-0.0015273854369297624,-0.0013162356335669756
1778841480420218600,10.176218505859374,0.0010437421733513474,-0.0017526887822896242,0.0014688980299979448
1778841480430198800,10.18619873046875,0.0009573770221322775,-0.00016902852803468704,0.003652434330433607
1778841480440179700,10.1961796875,-0.0006924512563273311,0.000018457998521625996,0.007662089541554451
1778841480450159900,10.206159912109374,0.0020495045464485884,-0.0009799388935789466,0.011162813752889633
1778841480460139800,10.216139892578125,0.001003947458229959,0.0006027776398696005,0.011811558157205582
1778841480470121000,10.226120849609375,-0.000257768202573061,0.0017438367940485477,0.012123677879571915
1778841480480100900,10.236100830078126,-0.0007643013959750533,0.00044687726767733693,0.013261115178465843
1778841480490081800,10.246081787109375,-0.0013419175520539284,0.0002686503576114774,0.01193059328943491
1778841480500061700,10.256061767578124,-0.0003677331260405481,0.0009464249014854431,0.01198944915086031
1778841480510041600,10.26604150390625,0.0007146088173612952,-0.0018579056486487389,0.010779843665659428
1778841480520022800,10.276022705078125,0.0009692070307210088,-0.002828627824783325,0.009350791573524475
1778841480530003000,10.2860029296875,0.002206670120358467,-0.0017496647778898478,0.007871673442423344
1778841480539982800,10.29598291015625,0.0020825667306780815,-0.0002289998228661716,0.005118763539940119
1778841480549963800,10.3059638671875,0.0020872317254543304,0.000993036199361086,0.003282521851360798
1778841480559944000,10.31594384765625,0.0019911369308829308,0.0023082487750798464,-0.0007039764896035194
1778841480569924900,10.3259248046875,0.0013964531244710088,0.005220415536314249,-0.005418304353952408
1778841480579904800,10.33590478515625,-0.00043543503852561116,0.003927384503185749,-0.006981308106333017
1778841480589884700,10.345884765625,-0.001550766872242093,0.00432259775698185,-0.007322991732507944
1778841480599865900,10.355865966796875,-0.0032216343097388744,0.003043481381610036,-0.004428402055054903
1778841480609845800,10.365845703125,-0.00320192682556808,0.00158619973808527,0.00014664256013929844
1778841480619826000,10.375825927734375,-0.004559090826660395,-0.00043992215069010854,0.0029746524523943663
1778841480629806800,10.385806884765625,-0.0032781101763248444,-0.0002697461750358343,0.00767140369862318
1778841480639786800,10.395786865234374,-0.003723190864548087,-0.0009613248985260725,0.009869572706520557
1778841480649768000,10.405767822265625,-0.0028864259365946054,-0.002185846446081996,0.009560646489262581
1778841480659747800,10.415747802734375,0.00012571769184432924,-0.00018406490562483668,0.00627536978572607
1778841480669727700,10.425727783203126,0.0006583499489352107,0.0011499123647809029,0.003947234246879816
1778841480679708700,10.435708740234375,-0.0003801085113082081,0.002967093139886856,0.0015333469491451979
1778841480689688600,10.4456884765625,-0.0007353741675615311,0.002669884357601404,-0.004241717979311943
1778841480699669800,10.455669677734376,-0.001568085397593677,0.00254809414036572,-0.005663849413394928
1778841480709650000,10.46564990234375,-0.001163018518127501,0.002922534476965666,-0.00468327384442091
1778841480719629800,10.4756298828125,0.00007169970194809139,0.0012177503667771816,-0.003570074448361993
1778841480729610800,10.48561083984375,0.0008032700279727578,0.0017610352952033281,-0.0021498107817023993
1778841480739591000,10.4955908203125,-0.00035152077907696366,-0.0007358718430623412,0.000760495662689209
1778841480749570800,10.50557080078125,-0.000751261250115931,-0.0012288229772821069,0.0027256421744823456
1778841480759551700,10.5155517578125,0.000454069027910009,0.00042154896073043346,0.0073891025967895985
1778841480769531600,10.52553173828125,-0.0017925737192854285,-0.0018839496187865734,0.010436290875077248
1778841480779512800,10.535512939453126,-0.001511077512986958,-0.002644548425450921,0.013444332405924797
1778841480789492700,10.54549267578125,-0.0031281490810215473,-0.0019561212975531816,0.016734667122364044
1778841480799473000,10.555472900390624,-0.0021726067643612623,-0.0006269376026466489,0.016075268387794495
1778841480809453800,10.565453857421875,-0.0020170174539089203,-0.0012914800317957997,0.015633180737495422
1778841480819433700,10.575433837890625,-0.001683323411270976,-0.0000392616493627429,0.01602999120950699
1778841480829415000,10.585414794921874,0.0002899097162298858,-0.0005945967277511954,0.01622973382472992
1778841480839394800,10.595394775390625,0.0012891277438029647,-0.0016321642324328423,0.01587100513279438
1778841480849374700,10.605374755859375,0.00430207047611475,-0.001602986129000783,0.014383628964424133
1778841480859355600,10.615355712890626,0.002537459833547473,-0.002730568405240774,0.013733550906181335
1778841480869335800,10.625335693359375,0.004227328114211559,-0.005135508719831705,0.01062830351293087
1778841480879316000,10.63531591796875,0.0033519472926855087,-0.0030768851283937693,0.007042356766760349
1778841480889297000,10.645296875,0.0016855912981554866,-0.0018241232028231025,0.002744813449680805
1778841480899276800,10.65527685546875,-0.00040126178646460176,0.0004273130907677114,-0.0013005284126847982
1778841480909258000,10.665258056640624,-0.0012268733698874712,-0.00007786665810272098,-0.005068103317171335
1778841480919238000,10.67523779296875,-0.002669241512194276,0.00026967586018145084,-0.007875341922044754
1778841480929217800,10.6852177734375,-0.000410235341405496,-0.0007823496125638485,-0.008653245866298676
1778841480939198700,10.69519873046875,-0.0023831049911677837,-0.0028793225064873695,-0.00798639003187418
1778841480949178600,10.7051787109375,0.0011226312490180135,-0.0026356102898716927,-0.0069344439543783665
1778841480959158800,10.71515869140625,0.0013316894182935357,-0.003294476307928562,-0.002269917167723179
1778841480969139700,10.7251396484375,0.0019563257228583097,-0.005372402258217335,-0.0000871908850967884
1778841480979119900,10.735119873046875,0.002115582814440131,-0.003492743242532015,0.004907034803181887
1778841480989100800,10.745100830078124,0.0027749959845095873,-0.004199863411486149,0.006091604009270668
1778841480999081000,10.7550810546875,0.002041827654466033,-0.0024528298527002335,0.006040204782038927
1778841481009060900,10.765060791015625,0.002204641466960311,-0.0013639290118589997,0.00581091083586216
1778841481019041800,10.775041748046876,0.0010743958409875631,0.002094718161970377,0.004562154412269592
1778841481029021700,10.785021728515625,-0.0004862162459176034,0.0019455410074442625,0.0017360026249662042
1778841481039001900,10.795001953125,-0.0019192632753401995,0.0009487199131399393,0.0012845967430621386
1778841481048982800,10.804982666015626,-0.0021175281144678593,0.0015344766434282064,-0.0001471182331442833
1778841481058963000,10.814962890625,-0.002842973219230771,0.0016031861305236816,0.0028811623342335224
1778841481068943600,10.824943603515624,-0.0027473035734146833,0.0013085969258099794,0.006062576547265053
1778841481078924000,10.834924072265625,-0.0020990902557969093,0.0002585126203484833,0.007381640374660492
1778841481088904000,10.844904052734375,-0.004297435283660889,0.0007287207990884781,0.008678331971168518
1778841481098884900,10.854884765625,-0.0035070092417299747,0.0016805346822366118,0.012364412657916546
1778841481108864800,10.86486474609375,-0.0047399727627635,0.00443201744928956,0.009109229780733585
1778841481118844700,10.8748447265625,-0.005724200513213873,0.00878996029496193,0.007904685102403164
1778841481128825900,10.884825927734376,-0.00722755491733551,0.012749814428389072,0.004043367225676775
1778841481138805800,10.8948056640625,-0.008976449258625507,0.015318924561142921,0.0033227119129151106
1778841481148786000,10.904785888671874,-0.01191205158829689,0.015625987201929092,0.0021799495443701744
1778841481158766800,10.914766845703125,-0.010245459154248238,0.015804696828126907,0.003127501579001546
1778841481168747000,10.9247470703125,-0.010028145276010036,0.012645920738577843,0.006280950736254454
1778841481178728000,10.93472802734375,-0.010209565050899982,0.008906087838113308,0.010388609021902084
1778841481188707800,10.944707763671875,-0.007792213466018438,0.007455197162926197,0.014433152042329311
1778841481198687700,10.954687744140625,-0.006238407921046019,0.00413068663328886,0.015596156939864159
1778841481208669000,10.9646689453125,-0.005486597772687674,0.0017349066911265254,0.01711229607462883
1778841481218648800,10.97464892578125,-0.002648215740919113,0.0019271977944299579,0.016819080337882042
1778841481228629000,10.98462890625,-0.002204266842454672,-0.0018483656458556652,0.01151486299932003
1778841481238609700,10.994609619140626,-0.0009330946486443281,-0.00023558782413601875,0.010024825111031532
1778841481248589800,11.00458984375,-0.002765349578112364,-0.0018630456179380417,0.007409867364913225
1778841481258571000,11.014571044921874,-0.004289580974727869,-0.0006067564827390015,0.002665442880243063
1778841481268551000,11.024551025390625,-0.005348720122128725,0.003426867537200451,-0.0029186734464019537
1778841481278530800,11.03453076171875,-0.007170729339122772,0.003340719500556588,-0.006234575528651476
1778841481288511700,11.04451171875,-0.008613896556198597,0.004416369833052158,-0.009660998359322548
1778841481298492000,11.054491943359375,-0.00982274767011404,0.005128798075020313,-0.00961253046989441
1778841481308471800,11.064471923828124,-0.008473590947687626,0.004088034853339195,-0.007749116513878107
1778841481318452700,11.07445263671875,-0.007452321704477072,0.00065529381390661,-0.006806354969739914
1778841481328433000,11.084432861328125,-0.005221391562372446,0.00018604483921080828,-0.005138416774570942
1778841481338412800,11.094412841796874,-0.003826775122433901,-0.0032211083453148603,-0.004486474208533764
1778841481348394000,11.10439404296875,0.0008270989055745304,-0.006196125410497189,-0.0008704338688403368
1778841481358374000,11.114373779296875,0.0024702094960957766,-0.007405157200992107,-0.001198004698380828
1778841481368354800,11.124354736328126,0.002617482328787446,-0.007045896723866463,0.0001426306553184986
1778841481378334700,11.134334716796875,0.004171969369053841,-0.0073782592080533504,0.0008947073947638273
1778841481388314600,11.144314697265624,0.002935855882242322,-0.007787714712321758,0.0042375074699521065
1778841481398295800,11.1542958984375,0.004192867781966925,-0.009510247968137264,0.0031860913150012493
1778841481408276000,11.16427587890625,0.0032660302240401506,-0.011686805635690689,0.004354684613645077
1778841481418256000,11.174255859375,0.0030215519946068525,-0.012231954373419285,0.005461760796606541
1778841481428236800,11.18423681640625,0.0031336145475506783,-0.011992227286100388,0.0014491749461740255
1778841481438217000,11.194217041015625,0.0007649990729987621,-0.01300050038844347,-0.001142613124102354
1778841481448196900,11.20419677734375,0.0016350958030670881,-0.01160876452922821,-0.0027189375832676888
1778841481458177800,11.214177734375,0.002019123639911413,-0.009572245180606842,-0.004853461403399706
1778841481468157700,11.22415771484375,0.001796260243281722,-0.009350435808300972,-0.007014615461230278
1778841481478137900,11.234137939453126,0.003441294888034463,-0.00675092451274395,-0.0064356448128819466
1778841481488118800,11.244118896484375,0.002393836621195078,-0.0070715066976845264,-0.006245758384466171
1778841481498099000,11.254098876953124,0.0028987720143049955,-0.006622497458010912,-0.005328299477696419
1778841481508079900,11.264079833984376,0.003726462135091424,-0.006557802204042673,-0.001682968344539404
1778841481518059800,11.274059814453125,0.0011522506829351187,-0.0038280619774013758,0.001471013412810862
1778841481528040000,11.2840400390625,0.0022999900393188,-0.0021861279383301735,0.0031826281920075417
1778841481538020900,11.294020751953125,0.0009178092586807907,-0.00020926346769556403,0.003446014830842614
1778841481548000800,11.304000732421875,0.004317155107855797,-0.0009838370606303215,0.004452686756849289
1778841481557980700,11.313980712890626,0.003737917635589838,-0.0011651983950287104,0.0020025784615427256
1778841481567961900,11.3239619140625,0.0041800024919211864,-0.002158823888748884,0.00009255926124751568
1778841481577942000,11.33394189453125,0.004539795685559511,-0.0024776041973382235,-0.0034289383329451084
1778841481587922000,11.343921875,0.0026661884039640427,-0.0025227931328117847,-0.004821238107979298
1778841481597902800,11.35390283203125,0.003375920932739973,-0.0037382596638053656,-0.008213040418922901
1778841481607882800,11.3638828125,0.002149856649339199,-0.004111411515623331,-0.006466537714004517
1778841481617863000,11.37386279296875,0.0019610386807471514,-0.003604878205806017,-0.0026757947634905577
1778841481627843800,11.38384375,0.0005319586489349604,-0.004408598877489567,-0.002543436363339424
1778841481637823700,11.39382373046875,0.002297900849953294,-0.003993944730609655,0.002742671873420477
1778841481647804700,11.4038046875,0.0026499705854803324,-0.0039068590849637985,0.005882272496819496
1778841481657784800,11.413784912109374,0.0015181272756308317,-0.0025843335315585136,0.00548226572573185
1778841481667765000,11.423764892578125,0.0032498270738869905,-0.0013530048308894038,0.005098770372569561
1778841481677746000,11.433745849609375,0.002784306649118662,-0.0034494451247155666,0.0003695290070027113
1778841481687725800,11.443725830078124,0.0037999236956238747,-0.004592356737703085,-0.004798068664968014
1778841481697705700,11.453705810546875,0.004813816398382187,-0.005765500944107771,-0.008220495656132698
1778841481707687000,11.46368701171875,0.0027677102480083704,-0.006290942430496216,-0.008588811382651329
1778841481717666800,11.473666748046876,0.0033190969843417406,-0.007156320381909609,-0.008381884545087814
1778841481727646700,11.483646728515625,0.004482099320739508,-0.005426330957561731,-0.007434864528477192
1778841481737627600,11.493627685546874,0.00385454623028636,-0.003056000918149948,-0.003745320485904813
1778841481747608000,11.503608154296876,0.0034974163863807917,-0.001270351349376142,-0.00027388986200094223
1778841481757588000,11.513587890625,0.0037074843421578407,-0.00018347235163673759,0.005220742896199226
1778841481767569000,11.52356884765625,0.002050998155027628,0.0013859285973012447,0.006066296715289354
1778841481777548800,11.533548828125,0.0021558471489697695,0.0012416497338563204,0.006069491617381573
1778841481787528700,11.54352880859375,0.0008431750466115773,0.00034123490331694484,0.006582682952284813
1778841481797510000,11.553510009765626,0.001098566921427846,0.00027974683325737715,0.002905391389504075
1778841481807489800,11.56348974609375,0.0012556934962049127,0.0006975968135520816,0.0011988377664238214
1778841481817470000,11.573469970703124,0.002178311115130782,-0.0005478033563122153,0.0016164210392162204
1778841481827451000,11.583450927734376,0.0030414415523409843,-0.0015656636096537113,0.0004241238348186016
1778841481837431000,11.59343115234375,0.0026099388487637043,-0.0010667688911780715,0.0005069493781775236
1778841481847412000,11.603411865234374,0.004017153289169073,-0.004408769775182009,0.0029975376091897488
1778841481857391900,11.613391845703125,0.0036449001636356115,-0.004651191644370556,0.0038689225912094116
1778841481867371800,11.623371826171875,0.0047831349074840546,-0.005597945302724838,0.0032614553347229958
1778841481877353000,11.63335302734375,0.003973155282437801,-0.0051450906321406364,0.0032356230076402426
1778841481887332900,11.643332763671875,0.005137755535542965,-0.005720333196222782,0.0017860643565654755
1778841481897312800,11.653312744140624,0.0042677284218370914,-0.004696103278547525,0.0011138829868286848
1778841481907293700,11.663293701171876,0.00257449084892869,-0.0033328309655189514,0.0010425103828310966
1778841481917273900,11.67327392578125,0.0031845932826399803,-0.002993789268657565,-0.0011753705330193043
1778841481927253800,11.683253662109376,0.0019126675324514508,-0.003043323988094926,-0.0011447444558143616
1778841481937235000,11.69323486328125,0.0031187194399535656,-0.0022522900253534317,-0.0011668491642922163
1778841481947214800,11.70321484375,0.002792215906083584,-0.0032906564883887768,-0.0000528490636497736
1778841481957194800,11.71319482421875,0.004081452265381813,-0.003184129949659109,0.003623911179602146
1778841481967175700,11.72317578125,0.0047612302005290985,-0.0015040801372379065,0.0025338793639093637
1778841481977155800,11.73315576171875,0.005249653942883015,-0.0021256618201732635,0.0020451892632991076
1778841481987136000,11.743135986328125,0.006013663485646248,-0.00019402842735871673,0.0018238803604617715
1778841481997117200,11.7531171875,0.0028607475105673075,0.0012280994560569525,-0.0008555259555578232
1778841482007097300,11.763097412109374,0.0030572135001420975,0.003829294117167592,-0.00501751434057951
1778841482017077200,11.7730771484375,0.0017994026420637965,0.003571499837562442,-0.007190653122961521
1778841482027058200,11.78305810546875,0.0010028121760115027,0.002617321442812681,-0.007473747245967388
1778841482037038000,11.7930380859375,0.0020134819205850363,0.004420814104378223,-0.007852449081838131
1778841482047018200,11.803018310546875,0.0007508900016546249,0.0014116978272795677,-0.006140302866697311
1778841482056999200,11.812999267578125,0.002283006440848112,0.0007307275081984699,-0.0023687342181801796
1778841482066979000,11.82297900390625,0.003175659803673625,0.00025991268921643496,-0.000527957221493125
1778841482076960000,11.8329599609375,0.0008469917811453342,-0.0007241253042593598,0.004744036588817835
1778841482086940400,11.8429404296875,0.002930294256657362,-0.002675594063475728,0.009040780365467072
1778841482096920300,11.85292041015625,0.0017236160347238183,-0.0015461473958566785,0.00969032570719719
1778841482106901200,11.8629013671875,0.003153593745082617,-0.001747343922033906,0.009233593940734863
1778841482116881200,11.872881103515626,0.0037157870829105377,-0.0011446705320850015,0.008589108474552631
1778841482126861000,11.882861083984375,0.002799799432978034,-0.0015117926523089409,0.006701460108160973
1778841482136842200,11.89284228515625,0.005662964191287756,-0.002433778950944543,0.005469747819006443
1778841482146822100,11.902822265625,0.004193285945802927,-0.0010367814684286714,0.0039506820030510426
1778841482156802300,11.91280224609375,0.0045930263586342335,-0.0031851534731686115,0.0003743232227861881
1778841482166783000,11.922782958984374,0.004192445892840624,-0.0038405251689255238,-0.0016131948214024305
1778841482176763100,11.93276318359375,0.003738377010449767,-0.002228513825684786,-0.001701877685263753
1778841482186743300,11.942743408203125,0.004746736492961645,-0.0020009088329970837,-0.0016084013041108847
1778841482196724200,11.95272412109375,0.004681222606450319,-0.003162313485518098,0.00032425462268292904
1778841482206704000,11.9627041015625,0.0051883249543607235,-0.0031927265226840973,0.004509678576141596
1778841482216684000,11.97268408203125,0.005674682091921568,-0.003728607902303338,0.007194677367806435
1778841482226665200,11.982665283203126,0.004853895865380764,-0.0019773130770772696,0.009357163682579994
1778841482236645000,11.99264501953125,0.005005962215363979,-0.0029384479857981205,0.010832555592060089
1778841482246625300,12.002625244140624,0.005550452042371035,-0.0013958173803985119,0.00837419182062149
